File: Cell-test-data/SiMP-LFP-PFOS1/JB6_SiMP-LFP-PFOS1_Channel_79_StatisticByStep.CSV
Date_Time                    ,Test Time (s),Step Time (s),Cycle Index,Step Index,Current (A),Voltage (V),Power (W),Charge Capacity (Ah),Discharge Capacity (Ah),Charge Energy (Wh),Discharge Energy (Wh),Charge Time (s),Discharge Time (s),V_Max_On_Cycle (V),Coulombic Efficiency (%),mAh/g
	08/05/2022 01:53:15.860,43200,43200,1.00,1.00,0,0.1807652,0,0,0,0,0,0,0,0,0,,
	08/06/2022 14:11:34.856,173899,0.0070,2.00,3.00,-0.0001584752,1.297351,-0.000205598,6.771922E-10,7.6267E-10,2.531561E-09,1.26769E-09,0.0154,0.0173,0,112.6224,,
	08/06/2022 18:36:45.606,189810,7865.2,4.00,6.00,-0.001059857,2.5,-0.00264964,0.002368624,0.002315505,0.007903667,0.006624268,8044.404,7864.195,0,97.75738,,
	08/07/2022 03:10:19.072,220623,7575.03,6.00,6.00,-0.00105984,2.5,-0.0026496,0.002266476,0.002230107,0.007524955,0.006350447,7697.455,7574.033,0,98.39537,,
	08/07/2022 11:30:39.469,250644,7410.05,8.00,6.00,-0.001060079,2.499992,-0.00265019,0.00221357,0.002181798,0.00734113,0.006199887,7517.556,7409.068,0,98.56467,,
	08/07/2022 19:45:40.881,280345,7350.39,10.00,6.00,-0.001060109,2.5,-0.00265027,0.002196513,0.002164213,0.007275623,0.00615007,7459.595,7349.433,0,98.52945,,
	08/08/2022 03:50:38.421,309443,7173.39,12.00,6.00,-0.001060118,2.49999,-0.00265028,0.002143929,0.002112141,0.007099505,0.005993844,7280.966,7172.454,0,98.5173,,
	08/08/2022 11:44:51.291,337895,7036.73,14.00,6.00,-0.001060127,2.499996,-0.00265031,0.002098197,0.002071779,0.006948188,0.00587628,7125.807,7035.765,0,98.74089,,
	08/08/2022 19:34:43.637,366088,6966.58,16.00,6.00,-0.001060127,2.49999,-0.00265031,0.002080605,0.002051241,0.006885198,0.005823003,7066.125,6965.712,0,98.58866,,
	08/09/2022 03:14:36.805,393681,6797.05,18.00,6.00,-0.001060139,2.499985,-0.00265033,0.00203246,0.002001308,0.006725522,0.005677127,6902.183,6796.172,0,98.46727,,
	08/09/2022 10:42:51.213,420575,6635.78,20.00,6.00,-0.001060135,2.5,-0.00265034,0.001981677,0.001953804,0.006559601,0.005539297,6729.725,6634.855,0,98.59344,,
	08/09/2022 18:06:07.395,447172,6576.74,22.00,6.00,-0.001060099,2.499992,-0.00265024,0.001964673,0.001936437,0.006500404,0.005497449,6672.227,6575.818,0,98.5628,,
	08/10/2022 01:20:25.668,473230,6425.18,24.00,6.00,-0.001060152,2.499989,-0.00265037,0.001921341,0.00189181,0.006357562,0.005369066,6524.785,6424.336,0,98.463,,
	08/10/2022 08:23:59.205,498643,6266.69,26.00,6.00,-0.001060111,2.499983,-0.00265026,0.001872933,0.001845162,0.006200042,0.005233528,6360.418,6265.937,0,98.51725,,
	08/10/2022 15:20:40.738,523645,6206.14,28.00,6.00,-0.001060141,2.499989,-0.00265034,0.00185168,0.001827351,0.006128757,0.005189401,6288.459,6205.366,0,98.68612,,
	08/10/2022 22:12:30.689,548355,6111.51,30.00,6.00,-0.00106016,2.499998,-0.0026504,0.001824351,0.001799465,0.00603748,0.005112894,6195.825,6110.713,0,98.63592,,
	08/11/2022 04:56:35.791,572600,5980.75,32.00,6.00,-0.001060085,2.5,-0.00265021,0.001786534,0.001760942,0.005912651,0.005001735,6067.036,5980,0,98.5675,,
	08/11/2022 11:30:09.133,596213,5826.96,34.00,6.00,-0.001060081,2.49999,-0.00265019,0.001737186,0.001715648,0.005753477,0.004869209,5899.386,5826.206,0,98.76015,,
	08/11/2022 17:59:55.797,619600,5792.69,36.00,6.00,-0.001060084,2.5,-0.00265021,0.001728006,0.001705584,0.005720255,0.004847407,5868.423,5791.963,0,98.70244,,
	08/12/2022 00:23:40.531,642625,5686.3,38.00,6.00,-0.001060111,2.499992,-0.00265027,0.001697825,0.001674274,0.005620723,0.004758012,5765.823,5685.57,0,98.61291,,
	08/12/2022 06:37:52.540,665077,5544.37,40.00,6.00,-0.001060097,2.499994,-0.00265024,0.001653574,0.001632463,0.005477711,0.004634859,5615.532,5543.636,0,98.7233,,
	08/12/2022 12:45:02.101,687106,5463.62,42.00,6.00,-0.001060115,2.499998,-0.00265029,0.001625118,0.001608705,0.005385252,0.004568655,5518.874,5462.929,0,98.99004,,
	08/12/2022 18:51:24.333,709088,5448.84,44.00,6.00,-0.001060123,2.49999,-0.0026503,0.001624128,0.001604359,0.00537835,0.004563054,5515.746,5448.171,0,98.78275,,
	08/13/2022 00:52:14.775,730739,5351.15,46.00,6.00,-0.001060132,2.499994,-0.00265032,0.001596371,0.001575567,0.005286582,0.004480097,5421.388,5350.496,0,98.6968,,
	08/13/2022 06:45:47.256,751951,5245.78,48.00,6.00,-0.001060102,2.49999,-0.00265024,0.001563687,0.001544564,0.005180303,0.004389936,5310.247,5245.093,0,98.77711,,
	08/13/2022 12:33:00.680,772785,5179.07,50.00,6.00,-0.00106012,2.499998,-0.0026503,0.001539258,0.001524919,0.005101405,0.004335456,5227.301,5178.41,0,99.06844,,
	08/13/2022 18:17:27.904,793452,5105.87,52.00,6.00,-0.001060088,2.5,-0.00265022,0.00152207,0.001503365,0.005042794,0.004273673,5168.917,5105.252,0,98.77107,,
	08/13/2022 23:56:02.385,813767,5037.38,54.00,6.00,-0.001060115,2.499996,-0.00265028,0.001499856,0.001483156,0.004970265,0.004216583,5093.38,5036.704,0,98.88651,,
	08/14/2022 05:29:28.980,833773,4952.41,56.00,6.00,-0.001060092,2.499996,-0.00265023,0.001474947,0.001458162,0.004888889,0.004144052,5008.851,4951.763,0,98.86201,,
	08/14/2022 10:58:17.486,853502,4895.43,58.00,6.00,-0.001060104,2.5,-0.00265026,0.001455086,0.001441385,0.00482406,0.00409722,4941.495,4894.831,0,99.05836,,
	08/14/2022 16:23:32.062,873016,4817.24,60.00,6.00,-0.001060097,2.499987,-0.00265023,0.00143453,0.001418328,0.004756015,0.00402991,4871.466,4816.6,0,98.87052,,
	08/14/2022 21:44:39.225,892283,4794.32,62.00,6.00,-0.001060134,2.5,-0.002650335,0.001425575,0.001411603,0.00472616,0.004014634,4841.223,4793.684,0,99.01988,,
	08/15/2022 03:03:52.755,911437,4748.45,64.00,6.00,-0.001060134,2.499998,-0.00265033,0.001413321,0.001398084,0.004684382,0.003977033,4799.584,4747.822,0,98.92184,,
	08/15/2022 08:19:11.910,930356,4690.15,66.00,6.00,-0.001060079,2.5,-0.0026502,0.001396204,0.001380929,0.004628161,0.003928274,4741.515,4689.562,0,98.90593,,
	08/15/2022 13:31:09.861,949074,4648.74,68.00,6.00,-0.001060135,2.499975,-0.00265031,0.001383191,0.001368755,0.004584788,0.003894803,4697.497,4648.154,0,98.95635,,
	08/15/2022 18:38:35.680,967520,4570.74,70.00,6.00,-0.001060099,2.499994,-0.00265024,0.001359046,0.001345801,0.004506372,0.003827221,4615.408,4570.179,0,99.02542,,
	08/15/2022 23:43:50.083,985834,4558.33,72.00,6.00,-0.001060174,2.499998,-0.00265043,0.001355252,0.001342119,0.004492758,0.00382043,4602.565,4557.765,0,99.0309,,
	08/16/2022 04:47:47.314,1.00407e+06,4526.25,74.00,6.00,-0.001060124,2.499992,-0.0026503,0.001346348,0.001332699,0.004462296,0.003795212,4572.425,4525.668,0,98.98621,,
	08/16/2022 09:48:09.260,1.02209e+06,4457.45,76.00,6.00,-0.001060106,2.499987,-0.00265025,0.001328069,0.001312434,0.004401685,0.003735446,4510.178,4456.919,0,98.82275,,
	08/16/2022 14:41:50.426,1.03971e+06,4367.36,78.00,6.00,-0.00106009,2.499983,-0.00265021,0.001298501,0.001285927,0.004306754,0.003656253,4409.765,4366.837,0,99.03168,,
	08/16/2022 19:32:03.915,1.05713e+06,4329.83,80.00,6.00,-0.001060045,2.499998,-0.00265011,0.00128575,0.001274867,0.004265049,0.003625762,4366.458,4329.274,0,99.15363,,
	08/17/2022 00:22:32.332,1.07456e+06,4334.96,82.00,6.00,-0.001060093,2.499994,-0.00265023,0.00128849,0.001276406,0.004271965,0.003634396,4375.987,4334.438,0,99.06216,,
	08/17/2022 05:11:27.904,1.09189e+06,4303.73,84.00,6.00,-0.001060111,2.499985,-0.00265026,0.001279539,0.001267169,0.004241695,0.003609103,4345.548,4303.185,0,99.03327,,
	08/17/2022 09:57:19.801,1.10904e+06,4249.62,86.00,6.00,-0.001060099,2.499994,-0.00265024,0.001263502,0.001251242,0.004188636,0.003562468,4291.053,4249.062,0,99.02967,,
	08/17/2022 14:39:49.919,1.12599e+06,4205.43,88.00,6.00,-0.001060113,2.49999,-0.00265027,0.001250267,0.001238223,0.004145301,0.003525417,4246.085,4204.851,0,99.03666,,
	08/17/2022 19:17:22.204,1.14265e+06,4113.29,90.00,6.00,-0.001060071,2.499992,-0.00265017,0.001223323,0.001211065,0.00405819,0.003442953,4154.324,4112.752,0,98.99801,,
	08/17/2022 23:49:44.866,1.15899e+06,4059.29,92.00,6.00,-0.001060097,2.5,-0.00265024,0.001205356,0.001195183,0.004000438,0.003396577,4093.31,4058.766,0,99.15602,,
	08/18/2022 04:20:21.378,1.17523e+06,4036.19,94.00,6.00,-0.001060092,2.5,-0.00265023,0.001198826,0.001188397,0.003978164,0.00337862,4071.307,4035.657,0,99.13009,,
	08/18/2022 08:48:12.884,1.1913e+06,3987.57,96.00,6.00,-0.001060095,2.499992,-0.00265023,0.001183857,0.001174063,0.003929244,0.003336536,4020.32,3987.049,0,99.17275,,
	08/18/2022 13:13:56.500,1.20724e+06,3961.44,98.00,6.00,-0.001060095,2.499989,-0.00265023,0.001176963,0.0011664,0.003905978,0.003315412,3997.045,3960.952,0,99.10249,,
	08/18/2022 17:37:18.695,1.22304e+06,3926.65,100.00,6.00,-0.001060155,2.499992,-0.00265038,0.001166033,0.001156144,0.003870209,0.003286457,3959.911,3926.153,0,99.15189,,
	08/18/2022 21:58:34.816,1.23872e+06,3893.48,102.00,6.00,-0.001060106,2.499985,-0.00265025,0.001156152,0.001146387,0.003837441,0.003258198,3926.277,3893,0,99.1554,,
	08/19/2022 02:17:11.589,1.25424e+06,3852.12,104.00,6.00,-0.001060045,2.499983,-0.00265009,0.001144331,0.001134193,0.003798785,0.003222964,3886.014,3851.615,0,99.11404,,
	08/19/2022 06:33:26.334,1.26961e+06,3818.37,106.00,6.00,-0.00106009,2.499981,-0.0026502,0.001134057,0.00112425,0.003764871,0.003194417,3851.153,3817.877,0,99.13525,,
	08/19/2022 10:47:22.692,1.28485e+06,3787.63,108.00,6.00,-0.001060104,2.499987,-0.00265025,0.001124134,0.001115229,0.003732293,0.003168745,3817.415,3787.146,0,99.20787,,
	08/19/2022 15:00:27.962,1.30003e+06,3778.04,110.00,6.00,-0.001060144,2.499996,-0.00265036,0.001121644,0.001112381,0.003723253,0.003162335,3809.162,3777.548,0,99.17415,,
	08/19/2022 19:11:49.660,1.31511e+06,3743.24,112.00,6.00,-0.001060137,2.5,-0.00265034,0.001111515,0.001102154,0.003689951,0.003132673,3774.737,3742.747,0,99.15775,,
	08/19/2022 23:20:49.184,1.33005e+06,3709.57,114.00,6.00,-0.00106005,2.5,-0.002650125,0.001101414,0.001092217,0.00365671,0.00310403,3740.337,3709.106,0,99.16502,,
	08/20/2022 03:27:44.759,1.34487e+06,3682.64,116.00,6.00,-0.001060099,2.5,-0.00265025,0.00109301,0.001084299,0.003629014,0.003081355,3711.867,3682.168,0,99.20303,,
	08/20/2022 07:32:53.923,1.35958e+06,3657.44,118.00,6.00,-0.001060081,2.5,-0.0026502,0.001085162,0.001076875,0.003603003,0.003060377,3685.151,3656.974,0,99.23632,,
	08/20/2022 11:36:39.913,1.3742e+06,3636.14,120.00,6.00,-0.001060101,2.499992,-0.00265024,0.001079657,0.001070628,0.003584616,0.003042989,3666.559,3635.711,0,99.16373,,
	08/20/2022 15:38:21.380,1.38871e+06,3603.35,122.00,6.00,-0.001060144,2.5,-0.00265036,0.001068988,0.001060967,0.003549577,0.003014759,3630.258,3602.911,0,99.24969,,
	08/20/2022 19:38:25.992,1.40311e+06,3579.7,124.00,6.00,-0.001060106,2.5,-0.002650265,0.001062679,0.001054017,0.003528558,0.002995138,3608.885,3579.242,0,99.18485,,
	08/20/2022 23:36:55.378,1.41742e+06,3556.67,126.00,6.00,-0.001060115,2.5,-0.00265029,0.00105596,0.001047221,0.003506284,0.00297607,3586.062,3556.21,0,99.17241,,
	08/21/2022 03:33:30.313,1.43161e+06,3526.76,128.00,6.00,-0.001060118,2.5,-0.002650295,0.001046825,0.001038413,0.003476224,0.002950463,3555,3526.305,0,99.19646,,
	08/21/2022 07:28:15.301,1.4457e+06,3501.35,130.00,6.00,-0.001060097,2.5,-0.00265024,0.001039048,0.001030929,0.003450587,0.002929045,3528.568,3500.894,0,99.21864,,
	08/21/2022 11:21:30.253,1.45969e+06,3480.14,132.00,6.00,-0.001060028,2.499981,-0.00265005,0.001032547,0.00102468,0.003428974,0.002911449,3506.51,3479.728,0,99.23814,,
	08/21/2022 15:13:32.528,1.47362e+06,3462.13,134.00,6.00,-0.001060125,2.499996,-0.00265031,0.0010275,0.001019372,0.003412132,0.002896703,3489.471,3461.699,0,99.20893,,
	08/21/2022 19:03:58.598,1.48744e+06,3436.31,136.00,6.00,-0.001060121,2.499998,-0.0026503,0.001019711,0.001011771,0.00338642,0.002874845,3462.957,3435.877,0,99.22131,,
	08/21/2022 22:52:43.474,1.50117e+06,3412.31,138.00,6.00,-0.001060095,2.5,-0.00265024,0.001012246,0.001004704,0.003361805,0.002854403,3437.438,3411.875,0,99.25493,,
	08/22/2022 02:39:57.357,1.5148e+06,3389.81,140.00,6.00,-0.001060102,2.5,-0.002650255,0.001005852,0.0009980873,0.003340687,0.00283539,3415.696,3389.381,0,99.22809,,
	08/22/2022 06:25:18.952,1.52832e+06,3361.64,142.00,6.00,-0.001060123,2.499992,-0.0026503,0.0009968844,0.000989779,0.00331131,0.002811067,3385.284,3361.201,0,99.28724,,
	08/22/2022 10:09:21.188,1.54177e+06,3344.62,144.00,6.00,-0.001060129,2.5,-0.00265032,0.0009920846,0.0009847769,0.003295379,0.002797297,3368.986,3344.194,0,99.2634,,
	08/22/2022 13:52:57.306,1.55518e+06,3340.99,146.00,6.00,-0.001060065,2.499996,-0.00265016,0.0009910646,0.0009837273,0.0032914,0.002795721,3365.629,3340.578,0,99.25965,,
	08/22/2022 17:35:28.670,1.56853e+06,3317.1,148.00,6.00,-0.001060134,2.499996,-0.00265033,0.000984287,0.0009766775,0.003268839,0.002775209,3342.685,3316.688,0,99.22691,,
	08/22/2022 21:16:17.981,1.58178e+06,3295.56,150.00,6.00,-0.001060181,2.499989,-0.00265044,0.0009772809,0.0009703441,0.003245814,0.002757016,3318.833,3295.162,0,99.29019,,
	08/23/2022 00:55:52.718,1.59496e+06,3275.83,152.00,6.00,-0.001060118,2.49999,-0.00265028,0.0009717683,0.0009645094,0.003227487,0.002740538,3300.12,3275.396,0,99.25303,,
	08/23/2022 04:33:58.262,1.60804e+06,3254.48,154.00,6.00,-0.001060158,2.499998,-0.00265039,0.0009649894,0.000958236,0.00320516,0.00272226,3277.058,3254.064,0,99.30016,,
	08/23/2022 08:10:33.932,1.62104e+06,3232.15,156.00,6.00,-0.001060121,2.499998,-0.0026503,0.0009583679,0.0009516572,0.003183448,0.002703234,3254.528,3231.738,0,99.29977,,
	08/23/2022 11:46:15.661,1.63398e+06,3224.11,158.00,6.00,-0.001060073,2.499998,-0.00265018,0.0009561309,0.0009493059,0.003175644,0.002697562,3247.059,3223.713,0,99.28619,,
	08/23/2022 15:21:03.128,1.64687e+06,3201.57,160.00,6.00,-0.001060132,2.499994,-0.00265032,0.0009504259,0.0009426637,0.003156756,0.002678426,3227.69,3201.151,0,99.18329,,
	08/23/2022 18:54:10.184,1.65965e+06,3180.82,162.00,6.00,-0.001060137,2.499998,-0.00265034,0.0009432428,0.0009365526,0.00313315,0.00266066,3203.31,3180.407,0,99.29073,,
	08/23/2022 22:26:00.234,1.67236e+06,3160.76,164.00,6.00,-0.001060123,2.499996,-0.0026503,0.0009375028,0.0009306612,0.003114084,0.002643568,3183.658,3160.373,0,99.27023,,
	08/24/2022 01:56:13.286,1.68498e+06,3135.55,166.00,6.00,-0.00106012,2.499992,-0.00265029,0.0009300482,0.0009232215,0.003089668,0.002621709,3158.347,3135.152,0,99.26599,,
	08/24/2022 05:25:01.145,1.69751e+06,3115.35,168.00,6.00,-0.001060148,2.499996,-0.00265037,0.0009242524,0.000917284,0.003070643,0.002604578,3138.644,3114.957,0,99.24605,,
	08/24/2022 08:52:37.558,1.70996e+06,3099.51,170.00,6.00,-0.001060139,2.499994,-0.00265034,0.0009190607,0.0009126028,0.00305355,0.002591291,3121.027,3099.094,0,99.29735,,
	08/24/2022 12:19:26.911,1.72237e+06,3090.85,172.00,6.00,-0.001060141,2.499998,-0.00265035,0.0009157927,0.0009100498,0.003042527,0.00258473,3110.065,3090.455,0,99.37289,,
	08/24/2022 15:46:07.131,1.73477e+06,3086.45,174.00,6.00,-0.001059851,2.499998,-0.00264963,0.0009154833,0.0009087566,0.003040987,0.002581924,3109.128,3086.045,0,99.26522,,
	08/24/2022 19:11:38.281,1.7471e+06,3066.45,176.00,6.00,-0.001060123,2.5,-0.00265031,0.0009094273,0.0009028826,0.003020896,0.002564727,3088.451,3066.05,0,99.28035,,
	08/24/2022 22:35:38.348,1.75934e+06,3041.7,178.00,6.00,-0.001060109,2.499996,-0.00265027,0.0009023711,0.0008955923,0.002997777,0.002543328,3064.376,3041.314,0,99.24878,,
	08/25/2022 01:58:08.209,1.77149e+06,3022.9,180.00,6.00,-0.001060079,2.499992,-0.00265019,0.0008959459,0.0008900472,0.002976727,0.002527128,3042.53,3022.525,0,99.34161,,
	08/25/2022 05:19:31.843,1.78358e+06,3006.07,182.00,6.00,-0.001060107,2.499989,-0.00265026,0.0008914568,0.0008851077,0.002961905,0.002512952,3027.264,3005.707,0,99.28778,,
	08/25/2022 08:39:55.645,1.7956e+06,2993.47,184.00,6.00,-0.001060099,2.499994,-0.00265024,0.0008869033,0.0008813812,0.002946784,0.002502447,3011.892,2993.081,0,99.37737,,
	08/25/2022 11:59:43.477,1.80759e+06,2985.77,186.00,6.00,-0.001060149,2.499996,-0.00265037,0.0008849032,0.0008791328,0.002940025,0.002496647,3005.14,2985.41,0,99.3479,,
	08/25/2022 15:19:26.242,1.81957e+06,2981.82,188.00,6.00,-0.001060123,2.499994,-0.0026503,0.0008840429,0.0008779755,0.002936759,0.0024942,3002.279,2981.444,0,99.31367,,
	08/25/2022 18:38:02.617,1.83149e+06,2963.03,190.00,6.00,-0.001060172,2.499985,-0.00265041,0.0008783963,0.0008724314,0.002918062,0.002477917,2983.057,2962.646,0,99.32094,,
	08/25/2022 21:55:09.284,1.84331e+06,2939.91,192.00,6.00,-0.001060078,2.499992,-0.00265019,0.0008718886,0.000865615,0.002896664,0.002457987,2960.845,2939.548,0,99.28046,,
	08/26/2022 01:10:56.920,1.85506e+06,2922.32,194.00,6.00,-0.001060113,2.5,-0.00265028,0.0008665551,0.0008604369,0.002879142,0.002442883,2942.777,2921.938,0,99.29396,,
	08/26/2022 04:25:34.135,1.86674e+06,2904.26,196.00,6.00,-0.001060135,2.49999,-0.00265033,0.0008612448,0.0008551338,0.002861659,0.002427486,2924.696,2903.924,0,99.29044,,
	08/26/2022 07:39:07.801,1.87835e+06,2891.31,198.00,6.00,-0.001060143,2.5,-0.00265036,0.0008571916,0.0008513152,0.002848264,0.002416707,2910.925,2890.966,0,99.31446,,
	08/26/2022 10:51:59.217,1.88992e+06,2880.4,200.00,6.00,-0.001060111,2.5,-0.00265028,0.0008539547,0.0008481054,0.002837406,0.002407773,2899.981,2880.044,0,99.31503,,
	08/26/2022 14:04:23.904,1.90147e+06,2875.76,202.00,6.00,-0.001060093,2.499987,-0.00265022,0.0008523966,0.0008467503,0.002832016,0.002404532,2894.713,2875.414,0,99.33761,,
	08/26/2022 17:16:25.530,1.91299e+06,2866.76,204.00,6.00,-0.001060097,2.499977,-0.00265022,0.0008501193,0.000844083,0.002824185,0.002397149,2887.005,2866.385,0,99.28995,,
	08/26/2022 20:27:13.340,1.92444e+06,2846.82,206.00,6.00,-0.001060113,2.499996,-0.00265028,0.000844216,0.0008382021,0.002804837,0.002380049,2866.963,2846.459,0,99.28764,,
	08/26/2022 23:36:41.758,1.93581e+06,2827.65,208.00,6.00,-0.001060093,2.499979,-0.00265021,0.0008381632,0.0008325709,0.002784913,0.002363377,2846.31,2827.301,0,99.33279,,
	08/27/2022 02:45:02.873,1.94711e+06,2812.72,210.00,6.00,-0.001060166,2.499998,-0.00265041,0.0008336029,0.0008281683,0.002769887,0.002350729,2830.813,2812.378,0,99.34807,,
	08/27/2022 05:52:30.318,1.95835e+06,2797.47,212.00,6.00,-0.001060092,2.5,-0.00265023,0.0008296987,0.0008236898,0.002756993,0.002337759,2817.555,2797.135,0,99.27577,,
	08/27/2022 08:58:46.390,1.96953e+06,2781.52,214.00,6.00,-0.001060116,2.499989,-0.00265028,0.0008245402,0.0008189802,0.002740075,0.002324183,2800.03,2781.177,0,99.32569,,
	08/27/2022 12:04:26.613,1.98067e+06,2774.35,216.00,6.00,-0.001060146,2.499998,-0.00265036,0.0008222241,0.0008168754,0.002732228,0.002318531,2792.188,2774.001,0,99.34949,,
	08/27/2022 15:09:41.367,1.99179e+06,2765.92,218.00,6.00,-0.001060165,2.499985,-0.0026504,0.0008203265,0.0008143801,0.002725672,0.002311735,2785.752,2765.563,0,99.27512,,
	08/27/2022 18:14:06.559,2.00285e+06,2753.79,220.00,6.00,-0.001060123,2.5,-0.00265031,0.0008163346,0.0008108155,0.002712458,0.002301592,2772.244,2753.43,0,99.32392,,
	08/27/2022 21:17:42.392,2.01387e+06,2740.52,222.00,6.00,-0.001060121,2.5,-0.0026503,0.0008126234,0.0008069154,0.002700152,0.002290275,2759.577,2740.156,0,99.29758,,
	08/28/2022 00:20:18.560,2.02482e+06,2726.65,224.00,6.00,-0.001060107,2.499996,-0.00265026,0.0008081447,0.0008028339,0.002685399,0.002278449,2744.343,2726.311,0,99.34285,,
	08/28/2022 03:21:55.536,2.03572e+06,2710.46,226.00,6.00,-0.001060113,2.499998,-0.00265028,0.0008035409,0.0007980561,0.002670276,0.002264411,2728.717,2710.105,0,99.31743,,
	08/28/2022 06:22:28.755,2.04655e+06,2696.14,228.00,6.00,-0.001060134,2.5,-0.002650335,0.0007990501,0.0007938482,0.002655523,0.002252263,2713.515,2695.787,0,99.34899,,
	08/28/2022 09:22:19.269,2.05734e+06,2687.32,230.00,6.00,-0.001060118,2.499996,-0.00265029,0.0007964619,0.000791243,0.002646862,0.002245063,2704.717,2686.962,0,99.34473,,
	08/28/2022 12:21:38.482,2.0681e+06,2679.46,232.00,6.00,-0.001060109,2.499977,-0.00265025,0.0007940281,0.000788902,0.002638724,0.002238615,2696.439,2679.106,0,99.35442,,
	08/28/2022 15:20:34.488,2.07884e+06,2673.39,234.00,6.00,-0.001060107,2.499994,-0.00265026,0.0007923363,0.0007871547,0.002632901,0.002234023,2690.754,2673.06,0,99.34604,,
	08/28/2022 18:18:47.919,2.08953e+06,2661.76,236.00,6.00,-0.001060111,2.499996,-0.00265027,0.0007889326,0.0007837189,0.002621599,0.002224125,2679.263,2661.418,0,99.33914,,
	08/28/2022 21:16:14.675,2.10018e+06,2649.17,238.00,6.00,-0.001060146,2.499998,-0.00265036,0.0007853369,0.0007800105,0.002609679,0.002213444,2666.934,2648.826,0,99.32177,,
	08/29/2022 00:12:52.448,2.11078e+06,2637.72,240.00,6.00,-0.001060125,2.5,-0.00265031,0.0007818271,0.0007766559,0.002598078,0.002203796,2655.022,2637.408,0,99.33856,,
	08/29/2022 03:08:32.257,2.12132e+06,2621.03,242.00,6.00,-0.001060123,2.5,-0.00265031,0.0007770537,0.0007716994,0.002582411,0.002189266,2638.819,2620.701,0,99.31095,,
	08/29/2022 06:03:10.876,2.1318e+06,2607.99,244.00,6.00,-0.001060107,2.499998,-0.00265027,0.0007729362,0.0007679152,0.002568867,0.002178322,2624.796,2607.695,0,99.3504,,
	08/29/2022 08:57:07.474,2.14223e+06,2599.23,246.00,6.00,-0.001060143,2.5,-0.00265036,0.000770164,0.000765266,0.00255966,0.002170951,2615.424,2598.893,0,99.36404,,
	08/29/2022 11:50:40.591,2.15264e+06,2593.33,248.00,6.00,-0.001060116,2.49999,-0.00265028,0.0007685134,0.0007635856,0.00255403,0.002166457,2609.865,2593.007,0,99.3588,,
	08/29/2022 14:43:58.017,2.16304e+06,2591.27,250.00,6.00,-0.00106016,2.5,-0.0026504,0.0007677639,0.0007629255,0.002551247,0.002165109,2607.336,2590.935,0,99.36981,,
	08/29/2022 17:36:50.287,2.17341e+06,2580.81,252.00,6.00,-0.001060163,2.499989,-0.0026504,0.0007650391,0.0007598879,0.002542113,0.002156363,2598.091,2580.477,0,99.32667,,
	08/29/2022 20:28:52.385,2.18374e+06,2568.59,254.00,6.00,-0.001060102,2.499994,-0.00265025,0.0007612665,0.0007562966,0.00252972,0.002145822,2585.274,2568.254,0,99.34715,,
	08/29/2022 23:19:59.250,2.194e+06,2555.47,256.00,6.00,-0.001060087,2.5,-0.00265022,0.0007572653,0.0007524444,0.002516556,0.00213463,2571.615,2555.178,0,99.36339,,
	08/30/2022 02:10:18.723,2.20422e+06,2542.49,258.00,6.00,-0.001060125,2.499981,-0.00265029,0.0007537224,0.0007486033,0.002504842,0.002123528,2559.573,2542.153,0,99.32082,,
	08/30/2022 16:59:21.676,2.21154e+06,0.0054,260.00,6.00,-0.001056646,-0.9268665,0.00097937,0.0006560041,1.584969E-09,0.002170033,-1.469054E-09,0.014,0.0065,0,0.0002416096,,
	08/30/2022 16:59:21.817,2.21154e+06,0.0070,262.00,6.00,-0.001057144,-0.9430876,0.000996979,5.030598E-09,5.326497E-09,3.376215E-08,-5.461512E-09,0.0172,0.017,0,105.882,,
	08/30/2022 16:59:21.952,2.21154e+06,0.0055,264.00,6.00,-0.001065431,-0.7300959,0.000777867,4.079185E-09,5.00626E-09,2.790349E-08,-4.684767E-09,0.0134,0.017,0,122.727,,
	08/30/2022 16:59:22.097,2.21154e+06,0.0058,266.00,6.00,-0.001063664,-0.5634508,0.000599322,4.952453E-09,4.574339E-09,3.336962E-08,-3.606745E-09,0.0163,0.0155,0,92.36512,,
	08/30/2022 16:59:22.236,2.21154e+06,0.0071,268.00,6.00,-0.001045379,-0.97118,0.00101525,4.32983E-09,5.73488E-09,2.767152E-08,7.303116E-10,0.0146,0.0196,0,132.4505,,
	08/30/2022 16:59:22.372,2.21154e+06,0.0058,270.00,6.00,-0.001051033,-0.7233553,0.00076027,4.77195E-09,4.182418E-09,3.139969E-08,-3.867658E-09,0.0162,0.0143,0,87.64588,,
	08/30/2022 16:59:22.516,2.21154e+06,0.0086,272.00,6.00,-0.001052137,-0.8705702,0.000915959,4.860325E-09,3.137735E-09,3.245201E-08,-8.856787E-10,0.0167,0.0107,0,64.55812,,
	08/30/2022 16:59:22.657,2.21154e+06,0.0050,274.00,6.00,-0.001054046,-0.7916737,0.00083446,3.255233E-09,4.966248E-09,2.129675E-08,-4.94046E-09,0.0111,0.0169,0,152.562,,
	08/30/2022 16:59:22.798,2.21154e+06,0.0053,276.00,6.00,-0.001055175,-0.7234468,0.000763363,4.137399E-09,4.90615E-09,2.715545E-08,-5.128275E-09,0.0142,0.0155,0,118.5806,,
	08/30/2022 16:59:22.932,2.21154e+06,0.0051,278.00,6.00,-0.001054958,-0.8456554,0.000892131,3.604611E-09,3.072626E-09,2.273033E-08,-2.596758E-09,0.0126,0.0103,0,85.24152,,
	08/30/2022 16:59:23.078,2.21154e+06,0.0051,280.00,6.00,-0.001060858,2.277466,-0.00241607,4.296042E-09,4.550095E-09,1.682502E-08,1.032848E-09,0.0146,0.0145,0,105.9137,,
	08/30/2022 16:59:23.224,2.21154e+06,0.0099,282.00,6.00,-0.001072077,-0.6146803,0.000658985,5.588872E-09,5.9367E-09,3.815202E-08,9.433426E-09,0.019,0.0192,0,106.2236,,
	08/30/2022 16:59:23.363,2.21154e+06,0.0084,284.00,6.00,-0.001055948,-0.3395452,0.000358542,2.87219E-09,5.387979E-09,1.577002E-08,-2.331889E-09,0.0096,0.017,0,187.5913,,
	08/30/2022 16:59:23.508,2.21154e+06,0.0067,286.00,6.00,-0.001032175,-0.5949469,0.000614089,5.241441E-09,3.801186E-09,2.87915E-08,-2.118007E-09,0.018,0.0131,0,72.52177,,
	08/30/2022 16:59:23.661,2.21154e+06,0.0083,288.00,6.00,-0.001053737,-1.062936,0.00112005,5.619052E-09,3.047851E-09,3.228942E-08,-3.181746E-09,0.0194,0.0104,0,54.24136,,
	08/30/2022 16:59:23.800,2.21154e+06,0.0055,290.00,6.00,-0.001062814,1.551189,-0.00164863,3.121373E-09,2.91793E-09,1.603535E-08,2.235428E-09,0.0105,0.0098,0,93.48225,,
	08/30/2022 16:59:23.935,2.21154e+06,0.0059,292.00,6.00,-0.0007169014,0.9096098,-0.000652101,3.804823E-09,5.208255E-09,2.493706E-08,8.912727E-09,0.013,0.0196,0,136.8856,,
	08/30/2022 16:59:24.085,2.21154e+06,0.0055,294.00,6.00,-0.00105755,0.4666338,-0.000493489,3.701247E-09,8.142745E-09,1.984863E-08,-3.838105E-09,0.0128,0.0287,0,220.0001,,
	08/30/2022 16:59:24.232,2.21154e+06,0.0088,296.00,6.00,-0.001056368,0.9804106,-0.00103567,4.07516E-09,5.468401E-09,2.515706E-08,8.622126E-09,0.0138,0.0177,0,134.1886,,
	08/30/2022 16:59:24.378,2.21154e+06,0.0105,298.00,6.00,-0.001059843,1.421531,-0.0015066,3.051993E-09,6.056632E-09,1.82493E-08,1.38307E-08,0.0098,0.0192,0,198.4485,,
	08/30/2022 16:59:24.522,2.21154e+06,0.0093,300.00,6.00,-0.001060517,1.620584,-0.00171866,3.869628E-09,5.035418E-09,2.096174E-08,7.753095E-09,0.013,0.0171,0,130.1267,,
	08/30/2022 16:59:24.667,2.21154e+06,0.0050,302.00,6.00,-0.001056073,1.813875,-0.00191558,3.492296E-09,3.697879E-09,2.051073E-08,6.805485E-09,0.0115,0.0126,0,105.8867,,
	08/30/2022 16:59:24.802,2.21154e+06,0.0052,304.00,6.00,-0.001059511,1.698296,-0.00179936,5.152401E-09,4.386013E-09,2.601793E-08,7.198074E-09,0.0175,0.0149,0,85.12561,,
	08/30/2022 16:59:24.947,2.21155e+06,0.0091,306.00,6.00,-0.001059783,1.76008,-0.0018653,3.86228E-09,4.73258E-09,1.476513E-08,8.099645E-09,0.0132,0.016,0,122.5333,,
	08/30/2022 16:59:25.092,2.21155e+06,0.0067,308.00,6.00,-0.001057175,1.508099,-0.00159432,5.072184E-09,4.352462E-09,2.512369E-08,6.903466E-09,0.0174,0.0148,0,85.81041,,
	08/30/2022 16:59:25.233,2.21155e+06,0.0083,310.00,6.00,-0.001049627,1.352406,-0.00141952,5.352018E-09,4.375649E-09,2.6305E-08,9.546718E-09,0.0182,0.0149,0,81.75698,,
	08/30/2022 16:59:25.373,2.21155e+06,0.0088,312.00,6.00,-0.001059283,1.34529,-0.00142504,3.648256E-09,5.652972E-09,1.724586E-08,7.422747E-09,0.0124,0.0165,0,154.95,,
	08/30/2022 16:59:25.514,2.21155e+06,0.0061,314.00,6.00,-0.001059404,1.519743,-0.00161002,3.737298E-09,3.800216E-09,1.764678E-08,5.529137E-09,0.0127,0.0129,0,101.6835,,
	08/30/2022 16:59:25.659,2.21155e+06,0.0051,316.00,6.00,-0.001060069,1.565311,-0.00165934,3.29539E-09,4.799555E-09,1.545982E-08,7.372753E-09,0.0112,0.0137,0,145.6445,,
	08/30/2022 16:59:25.803,2.21155e+06,0.0083,318.00,6.00,-0.001060486,1.544811,-0.00163825,4.974698E-09,5.094945E-09,2.098831E-08,9.411053E-09,0.0169,0.0173,0,102.4172,,
	08/30/2022 16:59:25.944,2.21155e+06,0.0080,320.00,6.00,-0.001060521,1.42658,-0.00151292,5.090691E-09,5.306789E-09,2.409482E-08,1.072676E-08,0.0173,0.017,0,104.245,,
	08/30/2022 16:59:26.091,2.21155e+06,0.0109,322.00,6.00,-0.001060641,1.346855,-0.00142853,6.4301E-09,4.734437E-09,3.216153E-08,1.06423E-08,0.0218,0.0161,0,73.62929,,
	08/30/2022 16:59:26.229,2.21155e+06,0.0056,324.00,6.00,-0.001059207,1.391484,-0.00147387,2.649893E-09,4.495157E-09,1.325676E-08,5.887483E-09,0.009099999,0.0144,0,169.6354,,
	08/30/2022 16:59:26.364,2.21155e+06,0.0055,326.00,6.00,-0.00107022,1.388693,-0.00148621,4.378939E-09,4.077367E-09,2.175596E-08,5.572327E-09,0.0149,0.0138,0,93.11312,,
	08/30/2022 16:59:26.503,2.21155e+06,0.0054,328.00,6.00,-0.001059473,1.497887,-0.00158697,4.766225E-09,4.003193E-09,2.267023E-08,5.704122E-09,0.0162,0.0136,0,83.99084,,
	08/30/2022 16:59:26.648,2.21155e+06,0.0059,330.00,6.00,-0.001065603,1.312547,-0.00139865,5.827499E-09,4.457247E-09,2.845332E-08,6.06563E-09,0.0196,0.0151,0,76.48646,,
	08/30/2022 16:59:26.785,2.21155e+06,0.0051,332.00,6.00,-0.001059904,1.469089,-0.00155709,5.148345E-09,3.003034E-09,2.459934E-08,4.1243E-09,0.0175,0.0102,0,58.33009,,
	08/30/2022 16:59:26.924,2.21155e+06,0.0055,334.00,6.00,-0.00105839,1.507439,-0.00159546,4.296129E-09,4.384085E-09,2.031012E-08,6.227107E-09,0.0146,0.0141,0,102.0473,,
	08/30/2022 16:59:27.065,2.21155e+06,0.0088,336.00,6.00,-0.001059351,1.518639,-0.00160877,4.29908E-09,5.065764E-09,2.029652E-08,7.439561E-09,0.0146,0.0172,0,117.8337,,
	08/30/2022 16:59:27.209,2.21155e+06,0.0079,338.00,6.00,-0.00105982,1.393925,-0.00147731,3.796623E-09,4.385973E-09,1.496698E-08,9.803046E-09,0.0129,0.0149,0,115.523,,
	08/30/2022 16:59:27.350,2.21155e+06,0.0051,340.00,6.00,-0.001058416,1.478201,-0.00156455,4.886068E-09,4.414681E-09,2.100932E-08,6.088168E-09,0.0166,0.015,0,90.35242,,
	08/30/2022 16:59:27.494,2.21155e+06,0.0081,342.00,6.00,-0.001059545,1.478399,-0.00156643,4.000217E-09,5.77097E-09,1.893039E-08,1.124795E-08,0.0136,0.0174,0,144.2664,,
	08/30/2022 16:59:27.634,2.21155e+06,0.0050,344.00,6.00,-0.001059471,1.539434,-0.00163099,4.000782E-09,3.179347E-09,1.524243E-08,4.664475E-09,0.0136,0.0108,0,79.46814,,
	08/30/2022 16:59:27.774,2.21155e+06,0.0084,346.00,6.00,-0.001060135,1.534807,-0.0016271,3.300537E-09,5.301459E-09,1.553951E-08,8.065212E-09,0.0112,0.017,0,160.6241,,
	08/30/2022 16:59:27.916,2.21155e+06,0.0052,348.00,6.00,-0.001059277,1.538448,-0.00162964,4.473439E-09,4.853863E-09,2.14067E-08,7.096436E-09,0.0152,0.0139,0,108.5041,,
	08/30/2022 16:59:28.059,2.21155e+06,0.0074,350.00,6.00,-0.001059711,1.449173,-0.0015357,5.022678E-09,4.592833E-09,2.5017E-08,6.333391E-09,0.017,0.0156,0,91.44191,,
	08/30/2022 16:59:28.205,2.21155e+06,0.0079,352.00,6.00,-0.001059622,1.513758,-0.00160401,4.047923E-09,5.962646E-09,1.621406E-08,8.77383E-09,0.0137,0.0203,0,147.3014,,
	08/30/2022 16:59:28.348,2.21155e+06,0.0056,354.00,6.00,-0.001057347,1.443485,-0.00152626,3.502047E-09,5.530894E-09,1.679251E-08,7.442883E-09,0.0119,0.0188,0,157.9332,,
	08/30/2022 16:59:28.488,2.21155e+06,0.0057,356.00,6.00,-0.001055798,1.539343,-0.00162524,4.590259E-09,5.558941E-09,2.206803E-08,8.152216E-09,0.0156,0.0189,0,121.103,,
	08/30/2022 16:59:28.632,2.21155e+06,0.0073,358.00,6.00,-0.001061627,1.490812,-0.00158269,5.354559E-09,4.953239E-09,2.547061E-08,7.202182E-09,0.0182,0.0168,0,92.50508,,
	08/30/2022 16:59:28.773,2.21155e+06,0.0057,360.00,6.00,-0.001059124,1.528444,-0.00161881,3.35558E-09,2.770878E-09,1.565019E-08,4.126734E-09,0.0114,0.0094,0,82.57524,,
	08/30/2022 16:59:28.913,2.21155e+06,0.0052,362.00,6.00,-0.001059702,1.573269,-0.0016672,2.825152E-09,5.68114E-09,1.310271E-08,8.389563E-09,0.0096,0.0193,0,201.0915,,
	08/30/2022 16:59:29.052,2.21155e+06,0.0055,364.00,6.00,-0.001058956,1.564457,-0.00165669,3.795908E-09,4.061083E-09,1.773415E-08,6.13275E-09,0.0129,0.0138,0,106.9858,,
	08/30/2022 16:59:29.193,2.21155e+06,0.0057,366.00,6.00,-0.001058483,1.630335,-0.00172568,3.23683E-09,4.031114E-09,1.515704E-08,6.17533E-09,0.011,0.0137,0,124.5389,,
	08/30/2022 16:59:29.332,2.21155e+06,0.0056,368.00,6.00,-0.001059515,1.557943,-0.00165066,4.383843E-09,4.445996E-09,2.050459E-08,6.664642E-09,0.0149,0.0151,0,101.4178,,
	08/30/2022 16:59:29.472,2.21155e+06,0.0089,370.00,6.00,-0.001060016,1.63092,-0.0017288,4.26792E-09,6.151955E-09,1.989161E-08,1.13872E-08,0.0145,0.0209,0,144.1441,,
	08/30/2022 16:59:29.618,2.21155e+06,0.0070,372.00,6.00,-0.001060028,1.622391,-0.00171978,4.236379E-09,4.475458E-09,1.654401E-08,7.136259E-09,0.0144,0.0152,0,105.6435,,
	08/30/2022 16:59:29.762,2.21155e+06,0.0071,374.00,6.00,-0.001059878,1.595156,-0.00169067,3.795088E-09,6.53516E-09,1.761705E-08,1.068277E-08,0.0129,0.0222,0,172.2005,,
	08/30/2022 16:59:29.897,2.21155e+06,0.0079,376.00,6.00,-0.001059543,1.550053,-0.00164235,3.677509E-09,5.152939E-09,1.70296E-08,1.09766E-08,0.0125,0.0175,0,140.1204,,
	08/30/2022 16:59:30.044,2.21155e+06,0.0094,378.00,6.00,-0.001059531,1.520819,-0.00161135,3.325099E-09,5.826804E-09,1.535798E-08,1.235424E-08,0.0113,0.0198,0,175.237,,
	08/30/2022 16:59:30.178,2.21155e+06,0.0056,380.00,6.00,-0.001059744,1.592211,-0.00168734,3.060053E-09,4.120646E-09,1.417764E-08,6.42483E-09,0.0104,0.014,0,134.6593,,
	08/30/2022 16:59:30.313,2.21155e+06,0.0058,382.00,6.00,-0.001060055,1.590616,-0.00168614,3.267006E-09,4.62257E-09,1.520145E-08,7.042034E-09,0.0111,0.0157,0,141.4926,,
	08/30/2022 16:59:30.463,2.21155e+06,0.0083,384.00,6.00,-0.001059817,1.571764,-0.00166578,4.913881E-09,5.269779E-09,2.27918E-08,9.531217E-09,0.0167,0.0179,0,107.2427,,
	08/30/2022 16:59:30.604,2.21155e+06,0.0068,386.00,6.00,-0.001060393,1.595366,-0.00169171,4.649536E-09,4.857745E-09,2.161279E-08,7.549116E-09,0.0158,0.0165,0,104.4781,,
	08/30/2022 16:59:30.744,2.21155e+06,0.0052,388.00,6.00,-0.001059855,1.594093,-0.00168951,4.295658E-09,4.799738E-09,1.99345E-08,7.459388E-09,0.0146,0.0152,0,111.7346,,
	08/30/2022 16:59:30.885,2.21155e+06,0.0100,390.00,6.00,-0.001059524,1.558893,-0.00165168,3.883575E-09,5.386471E-09,1.495443E-08,1.100731E-08,0.0132,0.0183,0,138.6988,,
	08/30/2022 16:59:31.028,2.21155e+06,0.0076,392.00,6.00,-0.00105993,1.58292,-0.00167778,4.207625E-09,6.210291E-09,1.944608E-08,1.114934E-08,0.0143,0.0211,0,147.5961,,
	08/30/2022 16:59:31.170,2.21155e+06,0.0051,394.00,6.00,-0.001059461,1.62174,-0.00171817,3.17836E-09,5.182695E-09,1.467583E-08,8.062719E-09,0.0108,0.0176,0,163.0619,,
	08/30/2022 16:59:31.309,2.21155e+06,0.0082,396.00,6.00,-0.001059717,1.584263,-0.00167887,4.914789E-09,3.119965E-09,2.286419E-08,5.725567E-09,0.0167,0.0098,0,63.48116,,
	08/30/2022 16:59:31.450,2.21155e+06,0.0053,398.00,6.00,-0.001059494,1.634129,-0.00173135,3.884161E-09,3.473445E-09,1.542345E-08,5.540399E-09,0.0132,0.0118,0,89.42588,,
	08/30/2022 16:59:31.594,2.21155e+06,0.0084,400.00,6.00,-0.001059829,1.609066,-0.00170533,4.826777E-09,4.97556E-09,2.245662E-08,9.475083E-09,0.0164,0.0169,0,103.0825,,
	08/30/2022 16:59:31.741,2.21155e+06,0.0092,402.00,6.00,-0.001059966,1.598309,-0.00169415,3.560536E-09,5.359168E-09,1.656917E-08,8.437516E-09,0.0121,0.0182,0,150.5158,,
	08/30/2022 16:59:31.885,2.21155e+06,0.0084,404.00,6.00,-0.001060191,1.587301,-0.00168284,5.325045E-09,3.67942E-09,2.496485E-08,7.491034E-09,0.0181,0.0125,0,69.0965,,
	08/30/2022 16:59:32.037,2.21155e+06,0.0074,406.00,6.00,-0.001060059,1.610001,-0.0017067,5.032629E-09,5.091485E-09,2.369408E-08,7.98049E-09,0.0171,0.0173,0,101.1695,,
	08/30/2022 16:59:32.184,2.21155e+06,0.0104,408.00,6.00,-0.001059566,1.563335,-0.00165646,3.783138E-09,5.975528E-09,1.47745E-08,9.298878E-09,0.0129,0.019,0,157.9516,,
	08/30/2022 16:59:32.322,2.21155e+06,0.0083,410.00,6.00,-0.001059527,1.571096,-0.00166462,4.090746E-09,6.418882E-09,1.927583E-08,1.331396E-08,0.0139,0.0218,0,156.9123,,
	08/30/2022 16:59:32.463,2.21155e+06,0.0052,412.00,6.00,-0.001059149,1.550013,-0.00164169,4.916398E-09,3.208278E-09,2.342236E-08,4.970511E-09,0.0167,0.0109,0,65.25668,,
	08/30/2022 16:59:32.602,2.21155e+06,0.0051,414.00,6.00,-0.001059324,1.649462,-0.00174731,3.235781E-09,4.681257E-09,1.507332E-08,7.492492E-09,0.011,0.0159,0,144.6716,,
	08/30/2022 16:59:32.743,2.21155e+06,0.0053,416.00,6.00,-0.001059487,1.647482,-0.00174549,3.356755E-09,3.533123E-09,1.572722E-08,5.687454E-09,0.0114,0.012,0,105.2541,,
	08/30/2022 16:59:32.882,2.21155e+06,0.0051,418.00,6.00,-0.001059148,1.615879,-0.00171146,4.119943E-09,4.26794E-09,1.942644E-08,6.749406E-09,0.014,0.0145,0,103.5922,,
	08/30/2022 16:59:33.021,2.21155e+06,0.0082,420.00,6.00,-0.001057965,1.440476,-0.00152397,3.796003E-09,5.295024E-09,1.52009E-08,7.946062E-09,0.0129,0.018,0,139.4895,,
	08/30/2022 16:59:33.167,2.21155e+06,0.0089,422.00,6.00,-0.001059538,1.62789,-0.00172481,4.413739E-09,5.592704E-09,1.750039E-08,9.023275E-09,0.015,0.019,0,126.7113,,
	08/30/2022 16:59:33.303,2.21155e+06,0.0051,424.00,6.00,-0.001059539,1.618963,-0.00171535,4.063134E-09,3.621203E-09,1.916391E-08,5.79398E-09,0.0138,0.0123,0,89.12341,,
	08/30/2022 16:59:33.447,2.21155e+06,0.0074,426.00,6.00,-0.001059878,1.676868,-0.00177728,5.120611E-09,3.650442E-09,2.219713E-08,9.1299E-09,0.0174,0.0124,0,71.28918,,
	08/30/2022 16:59:33.587,2.21155e+06,0.0093,428.00,6.00,-0.001060097,1.669817,-0.00177017,4.384072E-09,5.182554E-09,1.770659E-08,8.624268E-09,0.0149,0.0176,0,118.2132,,
	08/30/2022 16:59:33.733,2.21155e+06,0.0067,430.00,6.00,-0.00105964,1.660427,-0.00175945,4.679963E-09,3.855768E-09,2.196764E-08,6.358976E-09,0.0159,0.0131,0,82.38885,,
	08/30/2022 16:59:33.878,2.21155e+06,0.0086,432.00,6.00,-0.001059534,1.63373,-0.00173099,5.356775E-09,4.798928E-09,2.504596E-08,7.717848E-09,0.0182,0.0163,0,89.58614,,
	08/30/2022 16:59:34.018,2.21155e+06,0.0083,434.00,6.00,-0.001059716,1.650129,-0.00174867,4.444062E-09,4.826434E-09,2.063262E-08,1.023313E-08,0.0151,0.0164,0,108.6041,,
	08/30/2022 16:59:34.160,2.21155e+06,0.0052,436.00,6.00,-0.00105965,1.695688,-0.00179684,2.795463E-09,4.768948E-09,1.294096E-08,7.793993E-09,0.0095,0.0162,0,170.596,,
	08/30/2022 16:59:34.301,2.21155e+06,0.0060,438.00,6.00,-0.001059089,1.70517,-0.00180593,3.765648E-09,3.296033E-09,1.500175E-08,5.470659E-09,0.0128,0.0112,0,87.52898,,
	08/30/2022 16:59:34.444,2.21155e+06,0.0088,440.00,6.00,-0.001059882,1.671295,-0.00177138,4.823995E-09,4.386486E-09,2.234268E-08,7.242374E-09,0.0164,0.0149,0,90.93057,,
	08/30/2022 16:59:34.584,2.21155e+06,0.0075,442.00,6.00,-0.001059359,1.677231,-0.00177679,4.707858E-09,4.650692E-09,2.181368E-08,9.619898E-09,0.016,0.0158,0,98.78574,,
	08/30/2022 16:59:34.723,2.21155e+06,0.0083,444.00,6.00,-0.001059915,1.656088,-0.00175531,4.207271E-09,5.416729E-09,1.944528E-08,8.906474E-09,0.0143,0.0184,0,128.7468,,
	08/30/2022 16:59:34.865,2.21155e+06,0.0100,446.00,6.00,-0.00106002,1.667744,-0.00176784,4.558809E-09,6.477247E-09,2.105096E-08,1.065046E-08,0.0155,0.022,0,142.082,,
	08/30/2022 16:59:35.018,2.21156e+06,0.0109,448.00,6.00,-0.001059717,1.676405,-0.00177651,2.82343E-09,6.713466E-09,1.296205E-08,1.110731E-08,0.0096,0.0228,0,237.777,,
	08/30/2022 16:59:35.151,2.21156e+06,0.0051,450.00,6.00,-0.00105958,1.708441,-0.00181023,3.35448E-09,5.709579E-09,1.551613E-08,9.462719E-09,0.0114,0.0194,0,170.2076,,
	08/30/2022 16:59:35.290,2.21156e+06,0.0083,452.00,6.00,-0.001059713,1.68083,-0.0017812,3.266904E-09,5.270686E-09,1.508745E-08,1.004788E-08,0.0111,0.0168,0,161.3358,,
	08/30/2022 16:59:35.435,2.21156e+06,0.0069,454.00,6.00,-0.001059801,1.669924,-0.00176979,5.32492E-09,5.094188E-09,2.469724E-08,8.403796E-09,0.0181,0.0164,0,95.66695,,
	08/30/2022 16:59:35.575,2.21156e+06,0.0075,456.00,6.00,-0.001059753,1.653584,-0.00175239,3.000869E-09,4.855991E-09,1.38546E-08,1.104453E-08,0.0102,0.0165,0,161.8195,,
	08/30/2022 16:59:35.722,2.21156e+06,0.0083,458.00,6.00,-0.001059589,1.663458,-0.00176258,3.207895E-09,4.974273E-09,1.487898E-08,8.141382E-09,0.0109,0.0169,0,155.0635,,
	08/30/2022 16:59:35.861,2.21156e+06,0.0088,460.00,6.00,-0.001059666,1.651979,-0.00175055,3.649205E-09,5.327804E-09,1.694601E-08,1.193425E-08,0.0124,0.0173,0,145.9991,,
	08/30/2022 16:59:36.001,2.21156e+06,0.0070,462.00,6.00,-0.001059837,1.689095,-0.00179017,3.856321E-09,4.76962E-09,1.783782E-08,7.839722E-09,0.0131,0.0162,0,123.6832,,
	08/30/2022 16:59:36.147,2.21156e+06,0.0075,464.00,6.00,-0.001059799,1.662313,-0.00176172,4.619946E-09,5.652805E-09,2.143612E-08,9.315E-09,0.0157,0.0192,0,122.3565,,
	08/30/2022 16:59:36.282,2.21156e+06,0.0055,466.00,6.00,-0.001059724,1.691166,-0.00179217,2.824705E-09,4.474416E-09,1.307384E-08,7.439838E-09,0.0096,0.0152,0,158.4029,,
	08/30/2022 16:59:36.415,2.21156e+06,0.0071,468.00,6.00,-0.001059985,1.645552,-0.00174426,2.441169E-09,4.798927E-09,1.127602E-08,1.036055E-08,0.0083,0.0163,0,196.5831,,
	08/30/2022 16:59:36.551,2.21156e+06,0.0050,470.00,6.00,-0.001059505,1.66334,-0.00176232,3.978147E-09,6.152817E-09,1.865654E-08,9.914292E-09,0.0135,0.0209,0,154.6654,,
	08/30/2022 16:59:36.689,2.21156e+06,0.0084,472.00,6.00,-0.001059874,1.619755,-0.00171674,4.708794E-09,4.945763E-09,2.192781E-08,7.955316E-09,0.016,0.0168,0,105.0325,,
	08/30/2022 16:59:36.831,2.21156e+06,0.0100,474.00,6.00,-0.001059775,1.643068,-0.00174128,3.060739E-09,5.681914E-09,1.40214E-08,9.389361E-09,0.0104,0.0193,0,185.6386,,
	08/30/2022 16:59:36.969,2.21156e+06,0.0067,476.00,6.00,-0.001059985,1.779591,-0.00188634,4.208458E-09,2.679662E-09,1.901827E-08,4.7475E-09,0.0143,0.009099999,0,63.67324,,
	08/30/2022 16:59:37.106,2.21156e+06,0.0055,478.00,6.00,-0.001059538,1.840181,-0.00194974,2.442462E-09,5.740555E-09,1.088739E-08,1.027433E-08,0.0083,0.0195,0,235.0314,,
	08/30/2022 16:59:37.250,2.21156e+06,0.0080,480.00,6.00,-0.00105996,1.863842,-0.0019756,4.67947E-09,5.554894E-09,2.075319E-08,1.078316E-08,0.0159,0.0187,0,118.7078,,
	08/30/2022 16:59:37.392,2.21156e+06,0.0055,482.00,6.00,-0.001059609,1.911526,-0.00202547,4.179719E-09,3.150081E-09,1.843942E-08,5.922965E-09,0.0142,0.0107,0,75.36587,,
	08/30/2022 16:59:37.531,2.21156e+06,0.0059,484.00,6.00,-0.001059671,1.89333,-0.00200631,3.648696E-09,5.122441E-09,1.600628E-08,9.569212E-09,0.0124,0.0174,0,140.391,,
	08/30/2022 16:59:37.671,2.21156e+06,0.0055,486.00,6.00,-0.001059623,1.89945,-0.0020127,3.826511E-09,5.593766E-09,1.683653E-08,1.044365E-08,0.013,0.019,0,146.1845,,
	08/30/2022 16:59:37.815,2.21156e+06,0.0086,488.00,6.00,-0.001059662,1.876366,-0.00198831,4.239278E-09,4.799113E-09,1.865215E-08,8.959327E-09,0.0144,0.0163,0,113.2059,,
	08/30/2022 16:59:37.951,2.21156e+06,0.0051,490.00,6.00,-0.00105973,1.896791,-0.00201009,4.297178E-09,4.20983E-09,1.894236E-08,7.883485E-09,0.0146,0.0143,0,97.96732,,
	08/30/2022 16:59:38.095,2.21156e+06,0.0083,492.00,6.00,-0.00105972,1.868769,-0.00198037,2.883845E-09,5.594162E-09,1.265533E-08,1.288492E-08,0.0098,0.019,0,193.9828,,
	08/30/2022 16:59:38.237,2.21156e+06,0.0083,494.00,6.00,-0.00105979,1.875862,-0.00198802,3.884422E-09,5.211119E-09,1.709363E-08,9.696117E-09,0.0132,0.0177,0,134.1543,,
	08/30/2022 16:59:38.381,2.21156e+06,0.0053,496.00,6.00,-0.001060202,1.885399,-0.0019989,5.239815E-09,4.94721E-09,2.314116E-08,9.204445E-09,0.0178,0.0168,0,94.41574,,
	08/30/2022 16:59:38.526,2.21156e+06,0.0083,498.00,6.00,-0.001060032,1.867374,-0.00197948,3.149765E-09,5.948044E-09,1.388406E-08,1.355852E-08,0.0107,0.0202,0,188.8409,,
	08/30/2022 16:59:38.672,2.21156e+06,0.0069,500.00,6.00,-0.001060065,1.877184,-0.00198994,5.209022E-09,5.094425E-09,2.245425E-08,9.471072E-09,0.0177,0.0173,0,97.80004,,
	08/30/2022 16:59:38.813,2.21156e+06,0.0074,502.00,6.00,-0.001059757,1.872236,-0.00198412,3.119552E-09,4.357609E-09,1.372649E-08,8.106539E-09,0.0106,0.0148,0,139.687,,
	08/30/2022 16:59:38.887,2.21156e+06,0.0091,503.00,6.00,-0.001059855,1.871939,-0.00198398,3.943498E-09,6.830948E-09,1.735962E-08,1.266095E-08,0.0134,0.0232,0,173.2205,,