File: Cell-test-data/SiMP-LFP-PFOS1/JB6_SiMP-LFP-PFOS1_Channel_79_StatisticByCycle.CSV
Date_Time                    ,Test Time (s),Step Time (s),Cycle Index,Step Index,Current (A),Voltage (V),Power (W),Charge Capacity (Ah),Discharge Capacity (Ah),Charge Energy (Wh),Discharge Energy (Wh),Charge Time (s),Discharge Time (s),V_Max_On_Cycle (V),Coulombic Efficiency (%),mAh/g
	08/06/2022 14:11:34.783,173898.925,58712,1,3,-0.0001589765,2.426798,-0.000385804,0.003179061,0.002592858,0.01057314,0.007713113,71977.55,58704.49,0,81.56052,,
	08/06/2022 14:11:34.926,173899,0.0054,3,3,-0.0001585006,1.645575,-0.000260825,7.342762E-10,7.314834E-10,2.179417E-09,6.98431E-10,0.0167,0.0166,0,99.61964,,
	08/06/2022 22:55:45.506,205350,7700.95,5,6,-0.001060143,2.499973,-0.00265033,0.002307741,0.002267051,0.007670589,0.006468515,7837.784,7699.929,0,98.2368,,
	08/07/2022 07:21:50.797,235715,7488.6,7,6,-0.001060149,2.499994,-0.00265037,0.002238469,0.002204926,0.007427175,0.006271504,7602.106,7487.619,0,98.50153,,
	08/07/2022 15:38:49.764,265534,7398.51,9,6,-0.001060115,2.5,-0.00265029,0.002205701,0.002178439,0.007311804,0.006192273,7490.718,7397.649,0,98.764,,
	08/07/2022 23:49:43.020,294987,7265.55,11,6,-0.001060097,2.49999,-0.00265023,0.002171762,0.002139223,0.007191882,0.006075145,7375.455,7264.509,0,98.50172,,
	08/08/2022 07:48:47.674,323732,7092.51,13,6,-0.001060174,2.5,-0.002650435,0.002118794,0.002088181,0.007016314,0.005922915,7195.749,7091.665,0,98.55515,,
	08/08/2022 15:40:49.920,352054.062,7030.45,15,6,-0.001060158,2.499975,-0.00265037,0.002098583,0.002070058,0.006946145,0.005876125,7127.208,7029.583,0,98.64079,,
	08/08/2022 23:26:16.466,379981,6892.95,17,6,-0.00106012,2.5,-0.0026503,0.002060859,0.002029508,0.006818513,0.005760102,6998.921,6891.966,0,98.47873,,
	08/09/2022 07:00:04.900,407209,6713.13,19,6,-0.001060127,2.499998,-0.00265032,0.002006461,0.001976584,0.006640656,0.005605268,6813.979,6712.215,0,98.51093,,
	08/09/2022 14:25:17.549,433922,6631.43,21,6,-0.001060121,2.499992,-0.00265029,0.001976965,0.001952538,0.006543396,0.005542414,6713.958,6630.593,0,98.7644,,
	08/09/2022 21:44:34.811,460279,6504.927,23,6,-0.001060111,2.499987,-0.00265026,0.001943885,0.001915307,0.006431512,0.005436902,6601.532,6504.072,0,98.52988,,
	08/10/2022 04:53:31.265,486015,6346.09,25,6,-0.001060081,2.499981,-0.00265018,0.001895937,0.001868541,0.006274909,0.005301454,6438.618,6345.346,0,98.55499,,
	08/10/2022 11:52:25.243,511149,6215.17,27,6,-0.001060079,2.5,-0.0026502,0.001852175,0.00182998,0.006132772,0.00519163,6290.005,6214.353,0,98.80167,,
	08/10/2022 18:47:22.505,536047,6158.51,29,6,-0.00106013,2.49999,-0.00265031,0.00183807,0.001813306,0.006083108,0.005150873,6242.359,6157.667,0,98.65268,,
	08/11/2022 01:35:47.138,560551,6054.8,31,6,-0.001060127,2.5,-0.00265032,0.001808176,0.001782782,0.005983486,0.005065581,6140.755,6054.093,0,98.59558,,
	08/11/2022 08:14:41.965,584486,5899.48,33,6,-0.001060144,2.499992,-0.00265035,0.00176267,0.001737003,0.005835528,0.00493167,5985.88,5898.712,0,98.54386,,
	08/11/2022 14:45:33.870,607938,5829.106,35,6,-0.00106009,2.499996,-0.00265022,0.001735744,0.001716299,0.005747622,0.004876574,5894.804,5828.374,0,98.87971,,
	08/11/2022 21:12:47.606,631172,5747.671,37,6,-0.001060081,2.499996,-0.0026502,0.001714758,0.001692339,0.005676288,0.004810621,5823.341,5746.917,0,98.69254,,
	08/12/2022 03:31:51.851,653916,5607.22,39,6,-0.001060158,2.499992,-0.00265039,0.001673551,0.001650997,0.005542233,0.004688994,5683.297,5606.516,0,98.65231,,
	08/12/2022 09:41:58.843,676123,5489.31,41,6,-0.001060115,2.499994,-0.00265028,0.001636122,0.001616264,0.00542095,0.004587819,5556.234,5488.639,0,98.78629,,
	08/12/2022 15:48:38.938,698123,5476.74,43,6,-0.001060134,2.499987,-0.00265032,0.001631098,0.001612555,0.005402537,0.00458501,5539.375,5476.015,0,98.86318,,
	08/12/2022 21:52:41.482,719966,5404.6,45,6,-0.001060162,2.499996,-0.0026504,0.001611173,0.001591313,0.005335508,0.004525986,5471.79,5403.895,0,98.76739,,
	08/13/2022 03:49:50.516,741395,5295.62,47,6,-0.001060104,2.5,-0.00265026,0.001578145,0.001559219,0.005227623,0.004432489,5359.396,5294.952,0,98.80072,,
	08/13/2022 09:39:33.584,762378,5181.69,49,6,-0.001060109,2.5,-0.00265027,0.001544183,0.001525703,0.005116958,0.004333721,5243.917,5181.047,0,98.80325,,
	08/13/2022 15:26:12.383,783177,5165.11,51,6,-0.001060109,2.5,-0.00265027,0.001538796,0.001520815,0.005097526,0.004325527,5225.856,5164.446,0,98.83149,,
	08/13/2022 21:07:10.906,803635,5063.67,53,6,-0.001060076,2.499977,-0.00265017,0.001507278,0.001490915,0.004995053,0.004237859,5118.613,5062.995,0,98.91443,,
	08/14/2022 02:43:27.050,823811,4993.779,55,6,-0.001060138,2.5,-0.002650345,0.00148716,0.00147033,0.004928711,0.004179232,5050.176,4993.109,0,98.86828,,
	08/14/2022 08:14:19.858,843664,4918.81,57,6,-0.001060076,2.49999,-0.00265018,0.001463921,0.001448259,0.004852856,0.004115602,4971.379,4918.194,0,98.93008,,
	08/14/2022 13:42:02.664,863327,4883.23,59,6,-0.001060073,2.5,-0.00265018,0.001454988,0.001437756,0.004822175,0.004088447,4941.294,4882.59,0,98.81571,,
	08/14/2022 19:04:03.000,882647,4793.55,61,6,-0.001060087,2.499979,-0.0026502,0.001424279,0.001411383,0.004722983,0.004010963,4836.726,4792.941,0,99.09453,,
	08/15/2022 00:24:44.031,901888,4776.89,63,6,-0.001060102,2.499985,-0.00265024,0.001421451,0.001406462,0.004711429,0.004000724,4827.223,4776.276,0,98.94552,,
	08/15/2022 05:41:59.553,920924,4719.17,65,6,-0.001060111,2.5,-0.00265028,0.001403707,0.001389464,0.004653094,0.003952486,4766.972,4718.567,0,98.98531,,
	08/15/2022 10:55:22.945,939727,4663.02,67,6,-0.001060141,2.49999,-0.00265034,0.001386108,0.001372944,0.00459525,0.003905809,4707.345,4662.439,0,99.05032,,
	08/15/2022 16:05:28.846,958333,4603.66,69,6,-0.001060144,2.499996,-0.00265036,0.001370616,0.001355473,0.004543583,0.003855252,4654.689,4603.054,0,98.89516,,
	08/15/2022 21:11:08.527,976673,4556.22,71,6,-0.00106013,2.49999,-0.00265031,0.001353352,0.001341535,0.004487665,0.003816282,4596.002,4555.637,0,99.12685,,
	08/16/2022 02:16:08.013,994972,4545.38,73,6,-0.001059827,2.5,-0.00264957,0.001352083,0.001338332,0.004481622,0.003810728,4591.903,4544.794,0,98.983,,
	08/16/2022 07:18:40.998,1.01313e+06,4503.79,75,6,-0.001060113,2.499979,-0.00265026,0.001339552,0.001326079,0.00443975,0.003776562,4549.276,4503.199,0,98.99421,,
	08/16/2022 12:15:32.649,1.03094e+06,4399.77,77,6,-0.001060104,2.499958,-0.00265022,0.001308281,0.001295442,0.004338447,0.003684048,4443.004,4399.221,0,99.01863,,
	08/16/2022 17:07:07.023,1.04843e+06,4338.38,79,6,-0.001060087,2.499989,-0.00265021,0.00128902,0.001277384,0.004276026,0.003631341,4377.58,4337.834,0,99.09726,,
	08/16/2022 21:57:20.718,1.06584e+06,4339.46,81,6,-0.001060123,2.5,-0.00265031,0.00128874,0.001277706,0.004273829,0.003636637,4376.7,4338.911,0,99.1438,,
	08/17/2022 02:47:18.026,1.08324e+06,4322.235,83,6,-0.001060107,2.499994,-0.00265026,0.001284643,0.001272594,0.004258818,0.00362415,4362.872,4321.644,0,99.06204,,
	08/17/2022 07:34:58.539,1.1005e+06,4283.76,85,6,-0.001060113,2.499994,-0.00265028,0.001273834,0.001261304,0.004222658,0.00359251,4326.23,4283.234,0,99.0163,,
	08/17/2022 12:18:57.773,1.11754e+06,4229.29,87,6,-0.001060199,2.5,-0.0026505,0.001256696,0.00124527,0.004166647,0.003545683,4268.035,4228.783,0,99.0908,,
	08/17/2022 16:59:33.982,1.13438e+06,4169.31,89,6,-0.001060074,2.499956,-0.00265014,0.001240899,0.001227598,0.004114455,0.003493425,4214.16,4168.801,0,98.9281,,
	08/17/2022 21:33:51.668,1.15084e+06,4076.81,91,6,-0.001060099,2.499998,-0.00265025,0.001210897,0.001200331,0.004018515,0.003410994,4112.073,4076.281,0,99.12746,,
	08/18/2022 02:05:13.283,1.16712e+06,4047.43,93,6,-0.00106012,2.499992,-0.00265029,0.001201521,0.001191705,0.003987569,0.003387398,4080.399,4046.923,0,99.18297,,
	08/18/2022 06:34:44.400,1.18329e+06,4012.08,95,6,-0.001060093,2.499968,-0.0026502,0.001192682,0.001181289,0.003957598,0.00335764,4050.402,4011.545,0,99.04476,,
	08/18/2022 11:01:17.467,1.19928e+06,3975.93,97,6,-0.001060101,2.5,-0.00265025,0.001180233,0.001170658,0.003917126,0.003327512,4008.099,3975.413,0,99.18873,,
	08/18/2022 15:25:51.559,1.21516e+06,3940.38,99,6,-0.00106012,2.499989,-0.00265029,0.001170238,0.001160175,0.003884075,0.003297356,3974.097,3939.876,0,99.14006,,
	08/18/2022 19:48:14.510,1.2309e+06,3910.96,101,6,-0.001060064,2.499996,-0.00265016,0.001161409,0.001151541,0.003854666,0.003273265,3944.281,3910.482,0,99.1503,,
	08/19/2022 00:08:12.896,1.2465e+06,3872.01,103,6,-0.001060095,2.499992,-0.00265023,0.00115008,0.001140042,0.003817609,0.003239722,3905.51,3871.508,0,99.12717,,
	08/19/2022 04:25:36.235,1.26194e+06,3836.3,105,6,-0.001060106,2.5,-0.002650265,0.001138969,0.001129524,0.003781046,0.003209623,3867.788,3835.819,0,99.17075,,
	08/19/2022 08:40:37.094,1.27724e+06,3799.54,107,6,-0.001060124,2.5,-0.00265031,0.001128051,0.00111872,0.003745266,0.003178383,3830.681,3799.045,0,99.17284,,
	08/19/2022 12:54:00.213,1.29244e+06,3784.26,109,6,-0.001060121,2.499996,-0.0026503,0.001122709,0.001114238,0.003727361,0.003166989,3812.722,3783.771,0,99.24544,,
	08/19/2022 17:06:31.134,1.3076e+06,3765.33,111,6,-0.001060139,2.499989,-0.00265034,0.001118161,0.001108644,0.003711681,0.003151671,3797.306,3764.82,0,99.14889,,
	08/19/2022 21:16:38.775,1.3226e+06,3728.4,113,6,-0.001060073,2.49999,-0.00265017,0.001107247,0.001097781,0.0036758,0.003120176,3760.193,3727.928,0,99.14507,,
	08/20/2022 01:24:29.689,1.33747e+06,3695.41,115,6,-0.001060116,2.499998,-0.00265029,0.001096751,0.001088063,0.00364135,0.003092105,3724.553,3694.935,0,99.20778,,
	08/20/2022 05:30:30.803,1.35223e+06,3667.67,117,6,-0.001060084,2.5,-0.00265021,0.001088881,0.001079895,0.003615351,0.003068817,3697.817,3667.194,0,99.17473,,
	08/20/2022 09:34:56.717,1.3669e+06,3647.45,119,6,-0.001060135,2.499983,-0.00265032,0.001082083,0.001073944,0.003592764,0.003052123,3674.813,3647.005,0,99.24788,,
	08/20/2022 13:37:47.242,1.38147e+06,3617.97,121,6,-0.001060148,2.49999,-0.00265036,0.001074442,0.001065276,0.003567444,0.00302732,3648.802,3617.505,0,99.14688,,
	08/20/2022 17:38:36.869,1.39592e+06,3593.28,123,6,-0.001060167,2.499998,-0.00265042,0.001066436,0.001057993,0.003541083,0.003006545,3621.687,3592.823,0,99.20822,,
	08/20/2022 21:37:52.122,1.41028e+06,3569.36,125,6,-0.001060097,2.499996,-0.00265024,0.001058974,0.001050907,0.003516442,0.002986524,3596.269,3568.925,0,99.2382,,
	08/21/2022 01:35:28.040,1.42453e+06,3542.09,127,6,-0.001060132,2.499992,-0.00265032,0.001051254,0.00104294,0.00349074,0.002963536,3570.044,3541.639,0,99.20915,,
	08/21/2022 05:31:04.883,1.43867e+06,3513.51,129,6,-0.001060104,2.499996,-0.00265026,0.001042567,0.001034511,0.003462176,0.002939204,3540.548,3513.08,0,99.22731,,
	08/21/2022 09:25:03.090,1.45271e+06,3490.25,131,6,-0.001060137,2.499994,-0.00265034,0.001035648,0.001027653,0.003439317,0.002919796,3517.012,3489.806,0,99.22796,,
	08/21/2022 13:17:40.407,1.46666e+06,3472.12,133,6,-0.001059834,2.5,-0.002649585,0.001029893,0.001022329,0.003420178,0.002904991,3497.54,3471.674,0,99.26556,,
	08/21/2022 17:08:58.831,1.48054e+06,3449.08,135,6,-0.001060093,2.499992,-0.00265022,0.001023773,0.001015537,0.003399848,0.002885635,3476.749,3448.659,0,99.19557,,
	08/21/2022 20:58:33.215,1.49432e+06,3423.72,137,6,-0.001060076,2.499996,-0.00265019,0.001016039,0.001008072,0.003374279,0.002864118,3450.406,3423.278,0,99.21586,,
	08/22/2022 00:46:31.331,1.508e+06,3401.13,139,6,-0.001060111,2.5,-0.00265028,0.001008931,0.001001423,0.003350829,0.002845014,3426.205,3400.693,0,99.25584,,
	08/22/2022 04:32:51.533,1.52158e+06,3373.42,141,6,-0.001060113,2.499998,-0.00265028,0.001001285,0.0009932624,0.00332563,0.002821264,3400.247,3373.01,0,99.19876,,
	08/22/2022 08:17:27.097,1.53505e+06,3351.65,143,6,-0.001060134,2.5,-0.002650335,0.0009941431,0.0009868516,0.003302297,0.002802926,3375.991,3351.212,0,99.26656,,
	08/22/2022 12:01:10.202,1.54847e+06,3342.48,145,6,-0.001060121,2.5,-0.0026503,0.0009911951,0.0009841732,0.003292264,0.002796389,3366.062,3342.074,0,99.29156,,
	08/22/2022 15:44:28.411,1.56187e+06,3332.36,147,6,-0.001060138,2.499996,-0.00265034,0.0009888536,0.0009811789,0.003283918,0.002788564,3358.238,3331.926,0,99.22388,,
	08/22/2022 19:26:03.104,1.57517e+06,3304.35,149,6,-0.00106006,2.499996,-0.00265015,0.0009804468,0.0009729268,0.003256361,0.002764457,3329.593,3303.911,0,99.23299,,
	08/22/2022 23:06:16.294,1588380.436,3285.98,151,6,-0.001060088,2.499996,-0.00265022,0.0009752308,0.0009675128,0.003238958,0.00274917,3311.853,3285.543,0,99.2086,,
	08/23/2022 02:45:06.235,1.60151e+06,3264.42,153,6,-0.001060111,2.499998,-0.00265028,0.0009683959,0.0009611687,0.003216403,0.002730798,3288.61,3264,0,99.25369,,
	08/23/2022 06:22:26.776,1.61455e+06,3241.36,155,6,-0.001060152,2.499998,-0.00265038,0.0009619261,0.0009543796,0.003195124,0.002711125,3266.702,3240.94,0,99.21548,,
	08/23/2022 09:58:23.987,1.62751e+06,3223.39,157,6,-0.001060101,2.499987,-0.00265024,0.0009558772,0.0009490951,0.003175161,0.002695964,3246.184,3222.969,0,99.29049,,
	08/23/2022 13:33:53.385,1.64044e+06,3216.58,159,6,-0.001060139,2.499987,-0.00265033,0.0009542627,0.000947084,0.003169266,0.002691246,3240.681,3216.158,0,99.24772,,
	08/23/2022 17:07:45.596,1.65327e+06,3189.15,161,6,-0.00106012,2.499996,-0.0026503,0.000946064,0.0009390246,0.003142379,0.002667688,3212.848,3188.766,0,99.25594,,
	08/23/2022 20:40:15.349,1.66602e+06,3170.97,163,6,-0.001060093,2.499992,-0.00265022,0.0009404623,0.0009336398,0.003123893,0.002652263,3193.724,3170.535,0,99.27455,,
	08/24/2022 00:11:18.905,1678683.047,3147.11,165,6,-0.001060118,2.499968,-0.00265026,0.0009338221,0.0009266189,0.003102028,0.002631673,3171.099,3146.698,0,99.22863,,
	08/24/2022 03:40:46.693,1.69125e+06,3126.21,167,6,-0.001060101,2.49999,-0.00265024,0.0009266271,0.0009204788,0.003078434,0.002613713,3146.716,3125.793,0,99.33648,,
	08/24/2022 07:08:56.547,1.70374e+06,3106.94,169,6,-0.001060118,2.499996,-0.00265029,0.0009211095,0.0009147976,0.003060296,0.002597453,3127.981,3106.538,0,99.31474,,
	08/24/2022 10:36:05.538,1.71617e+06,3092.47,171,6,-0.00106012,2.499998,-0.0026503,0.0009172906,0.0009105609,0.003047555,0.002585594,3115.054,3092.101,0,99.26635,,
	08/24/2022 14:02:51.099,1.72858e+06,3091.19,173,6,-0.001060109,2.499994,-0.00265027,0.000916498,0.00091014,0.00304443,0.002585504,3112.546,3090.787,0,99.30627,,
	08/24/2022 17:29:02.928,1740947.07,3076.431,175,6,-0.001060135,2.499989,-0.00265033,0.0009124771,0.0009057543,0.003031004,0.002573163,3098.903,3076.037,0,99.26323,,
	08/24/2022 20:53:51.812,1.75324e+06,3055.2,177,6,-0.001060107,2.499989,-0.00265026,0.0009063284,0.0008995673,0.003010711,0.00255502,3077.885,3054.81,0,99.25401,,
	08/25/2022 00:17:02.348,1765426.49,3031.09,179,6,-0.001060087,2.5,-0.00265022,0.00089888,0.0008924665,0.00298637,0.002534128,3052.488,3030.711,0,99.2865,,
	08/25/2022 03:38:58.048,1.77754e+06,3014.29,181,6,-0.001060074,2.499994,-0.00265018,0.0008937655,0.0008875169,0.00296955,0.002519849,3035.094,3013.902,0,99.30087,,
	08/25/2022 06:59:49.845,1.78959e+06,2998.157,183,6,-0.001060132,2.5,-0.00265033,0.0008891397,0.0008827683,0.002954257,0.002506373,3019.385,2997.763,0,99.28342,,
	08/25/2022 10:19:52.100,1.8016e+06,2987.68,185,6,-0.001060134,2.5,-0.002650335,0.0008858605,0.0008796875,0.002943293,0.002497808,3008.343,2987.286,0,99.30317,,
	08/25/2022 13:39:41.699,1.81359e+06,2988.43,187,6,-0.001060132,2.499992,-0.00265032,0.0008861357,0.0008799114,0.002943671,0.00249964,3009.349,2988.045,0,99.29759,,
	08/25/2022 16:58:56.099,1.82554e+06,2973.57,189,6,-0.001060151,2.5,-0.00265038,0.0008821488,0.0008755315,0.002930257,0.002487107,2995.842,2973.222,0,99.24987,,
	08/25/2022 20:16:48.079,1.83741e+06,2951.37,191,6,-0.001060123,2.499996,-0.0026503,0.0008756305,0.0008689979,0.002908929,0.002467897,2973.65,2950.994,0,99.24253,,
	08/25/2022 23:33:11.386,1.8492e+06,2931.18,193,6,-0.001060191,2.499981,-0.00265046,0.0008688229,0.0008630471,0.002886566,0.002450446,2950.473,2930.795,0,99.33522,,
	08/26/2022 02:48:24.765,1.86091e+06,2913.68,195,6,-0.001060093,2.499981,-0.00265021,0.0008639108,0.0008578969,0.002870437,0.002435516,2933.74,2913.336,0,99.30388,,
	08/26/2022 06:02:25.129,1.87255e+06,2895.62,197,6,-0.001060095,2.499981,-0.00265022,0.0008583691,0.0008525748,0.002852249,0.002420073,2914.933,2895.234,0,99.32497,,
	08/26/2022 09:15:38.423,1.88414e+06,2885.42,199,6,-0.001060097,2.5,-0.00265024,0.0008553737,0.0008495788,0.002842175,0.002411812,2904.774,2885.053,0,99.32253,,
	08/26/2022 12:28:13.019,1.8957e+06,2877.593,201,6,-0.001060146,2.499994,-0.00265036,0.0008526955,0.0008472746,0.002833174,0.00240566,2895.781,2877.219,0,99.36426,,
	08/26/2022 15:40:31.332,1.90724e+06,2873.89,203,6,-0.001060132,2.5,-0.00265033,0.0008519197,0.0008461798,0.002830212,0.002403187,2893.122,2873.523,0,99.32625,,
	08/26/2022 18:51:59.140,1.91872e+06,2856.08,205,6,-0.001060134,2.499998,-0.00265033,0.0008472112,0.0008409364,0.002814643,0.002387939,2877.079,2855.711,0,99.25935,,
	08/26/2022 22:02:07.387,1.93013e+06,2836.43,207,6,-0.001060081,2.499994,-0.0026502,0.000841366,0.0008351524,0.002795408,0.002371005,2857.192,2836.065,0,99.26149,,
	08/27/2022 01:10:58.939,1.94146e+06,2818.52,209,6,-0.001060169,2.499992,-0.00265041,0.0008357897,0.0008298691,0.002777136,0.002355604,2838.222,2818.141,0,99.29161,,
	08/27/2022 04:18:54.873,1.95274e+06,2806.65,211,6,-0.001060148,2.49999,-0.00265036,0.0008318733,0.0008263848,0.002764144,0.00234566,2824.925,2806.292,0,99.34023,,
	08/27/2022 07:25:44.415,1.96395e+06,2787.58,213,6,-0.001060146,2.499994,-0.00265036,0.0008263314,0.0008207655,0.002745999,0.00232914,2806.111,2787.226,0,99.32642,,
	08/27/2022 10:31:39.639,1.9751e+06,2777.51,215,6,-0.001060109,2.499987,-0.00265026,0.0008231629,0.0008177965,0.002735458,0.002320938,2795.332,2777.153,0,99.34808,,
	08/27/2022 13:37:09.269,1.98623e+06,2772.37,217,6,-0.001060113,2.499981,-0.00265026,0.000821542,0.0008162817,0.002729879,0.002317187,2789.905,2772.012,0,99.35971,,
	08/27/2022 16:42:00.132,1.99732e+06,2759.89,219,6,-0.001060109,2.499994,-0.00265027,0.0008181557,0.000812628,0.002718528,0.002306726,2778.45,2759.537,0,99.32436,,
	08/27/2022 19:46:01.895,2.00837e+06,2748.37,221,6,-0.001060129,2.499987,-0.00265031,0.0008146525,0.0008092329,0.002706876,0.002297036,2766.556,2748.028,0,99.33475,,
	08/27/2022 22:49:07.170,2.01935e+06,2732.9,223,6,-0.001060087,2.5,-0.00265022,0.0008102327,0.0008046771,0.002692285,0.002283819,2751.472,2732.549,0,99.31432,,
	08/28/2022 01:51:15.938,2.03028e+06,2719.61,225,6,-0.001060097,2.499994,-0.00265024,0.0008060926,0.0008007536,0.002678649,0.002272395,2737.381,2719.259,0,99.33767,,
	08/28/2022 04:52:18.726,2.04114e+06,2702.224,227,6,-0.001060132,2.499998,-0.00265033,0.0008011358,0.0007956373,0.002662429,0.002257443,2720.557,2701.902,0,99.31365,,
	08/28/2022 07:52:26.846,2.05195e+06,2690.06,229,6,-0.001060111,2.499996,-0.00265027,0.0007973337,0.0007920585,0.002649818,0.002247199,2707.636,2689.716,0,99.33839,,
	08/28/2022 10:52:02.160,2.06273e+06,2682.82,231,6,-0.001060127,2.5,-0.00265032,0.0007949728,0.0007899235,0.00264189,0.002241367,2699.665,2682.464,0,99.36485,,
	08/28/2022 13:51:09.968,2.07347e+06,2676.75,233,6,-0.001060093,2.499998,-0.00265023,0.0007933896,0.0007881327,0.002636504,0.00223668,2694.335,2676.414,0,99.33742,,
	08/28/2022 16:49:46.493,2.08419e+06,2666.98,235,6,-0.001060166,2.5,-0.002650415,0.0007905331,0.0007852478,0.002626916,0.002228468,2684.631,2666.629,0,99.33142,,
	08/28/2022 19:47:38.164,2.09486e+06,2656.13,237,6,-0.001060048,2.499994,-0.00265011,0.0007873185,0.0007820771,0.002616252,0.002219416,2673.717,2655.79,0,99.33428,,
	08/28/2022 22:44:39.331,2105483.473,2643.696,239,6,-0.001060134,2.49999,-0.00265032,0.0007834678,0.0007784097,0.002603512,0.002208856,2660.567,2643.376,0,99.3544,,
	08/29/2022 01:40:52.007,2.11606e+06,2630.68,241,6,-0.001060167,2.499996,-0.00265041,0.0007799026,0.0007745628,0.002591703,0.002197674,2648.472,2630.346,0,99.31532,,
	08/29/2022 04:35:57.718,2.12656e+06,2614.09,243,6,-0.001059825,2.499985,-0.00264955,0.0007747632,0.0007696931,0.002574898,0.002183436,2630.99,2613.783,0,99.34558,,
	08/29/2022 07:30:12.422,2.13702e+06,2602.01,245,6,-0.001060157,2.499996,-0.00265039,0.0007712675,0.000766137,0.00256334,0.002173278,2619.132,2601.661,0,99.3348,,
	08/29/2022 10:23:57.000,2.14744e+06,2596.43,247,6,-0.001059985,2.5,-0.00264996,0.0007693552,0.0007644776,0.002556887,0.002168837,2612.698,2596.098,0,99.36601,,
	08/29/2022 13:17:19.026,2.15784e+06,2590.95,249,6,-0.001060177,2.5,-0.00265044,0.0007676962,0.0007628726,0.002551236,0.002164582,2607.079,2590.619,0,99.37168,,
	08/29/2022 16:10:30.998,2.16824e+06,2588.06,251,6,-0.001060138,2.5,-0.002650345,0.00076692,0.0007620179,0.002548388,0.002162535,2604.507,2587.716,0,99.3608,,
	08/29/2022 19:02:58.132,2.17858e+06,2575.39,253,6,-0.001059815,2.499985,-0.00264952,0.000763256,0.0007582541,0.00253623,0.002151596,2592.064,2575.051,0,99.34467,,
	08/29/2022 21:54:31.791,2.18888e+06,2560.77,255,6,-0.00106013,2.499996,-0.00265032,0.0007592178,0.0007539919,0.002522988,0.002139159,2578.251,2560.445,0,99.31168,,
	08/30/2022 00:45:16.262,2.19912e+06,2550.1,257,6,-0.001060087,2.499994,-0.00265021,0.0007557779,0.0007508275,0.00251163,0.00213,2566.563,2549.757,0,99.34499,,
	08/30/2022 03:35:08.699,2.20931e+06,2536.65,259,6,-0.001060149,2.5,-0.00265037,0.0007517855,0.0007468982,0.002498468,0.002118599,2552.939,2536.333,0,99.34991,,
	08/30/2022 16:59:21.749,2.21154e+06,0.009,261,6,-0.001060888,-1.028274,0.00109088,4.702729E-09,5.469382E-09,2.410928E-08,5.701737E-09,0.0161,0.0184,0,116.3023,,
	08/30/2022 16:59:21.885,2.21154e+06,0.009,263,6,-0.001059135,-0.9835424,0.0010417,5.062378E-09,5.887635E-09,3.49113E-08,-5.994469E-09,0.0169,0.02,0,116.3018,,
	08/30/2022 16:59:22.029,2.21154e+06,0.0074,265,6,-0.001049906,-0.8103962,0.00085084,5.387063E-09,5.496517E-09,3.615946E-08,-5.060602E-09,0.0184,0.0185,0,102.0318,,
	08/30/2022 16:59:22.165,2.21154e+06,0.005,267,6,-0.001054488,-0.8719854,0.000919498,3.425853E-09,3.55904E-09,2.227311E-08,-3.207775E-09,0.0118,0.0121,0,103.8877,,
	08/30/2022 16:59:22.305,2.21154e+06,0.0055,269,6,-0.001011903,-0.7224388,0.000731038,4.775362E-09,4.728957E-09,3.105168E-08,-4.379457E-09,0.0162,0.0162,0,99.02825,,
	08/30/2022 16:59:22.445,2.21154e+06,0.0051,271,6,-0.001046565,-0.7604923,0.000795905,3.776166E-09,4.354294E-09,2.47312E-08,-4.114594E-09,0.0129,0.0149,0,115.3099,,
	08/30/2022 16:59:22.591,2.21154e+06,0.0098,273,6,-0.001058954,-0.9004765,0.000953563,4.191208E-09,4.327694E-09,2.831026E-08,1.12572E-12,0.0143,0.0147,0,103.2565,,
	08/30/2022 16:59:22.728,2.21154e+06,0.0075,275,6,-0.001063311,-0.9547892,0.00101524,3.780178E-09,5.329413E-09,2.477281E-08,-5.522098E-09,0.0128,0.0172,0,140.9832,,
	08/30/2022 16:59:22.865,2.21154e+06,0.0052,277,6,-0.001062602,0.9056187,-0.000962312,2.8729E-09,2.292963E-09,1.640383E-08,5.291304E-10,0.0098,0.0078,0,79.81353,,
	08/30/2022 16:59:23.002,2.21154e+06,0.0067,279,6,-0.001079551,-0.3850927,0.000415727,4.662577E-09,5.591224E-09,3.047301E-08,-1.357014E-09,0.0159,0.0189,0,119.917,,
	08/30/2022 16:59:23.149,2.21154e+06,0.0083,281,6,-0.001060104,2.315893,-0.00245509,2.826053E-09,5.918901E-09,1.11278E-08,1.5474E-08,0.0096,0.0201,0,209.4406,,
	08/30/2022 16:59:23.290,2.21154e+06,0.005,283,6,-0.001056917,-0.007986069,8.44061e-06,2.918793E-09,4.544538E-09,1.934361E-08,-2.952131E-09,0.0099,0.016,0,155.6992,,
	08/30/2022 16:59:23.434,2.21154e+06,0.0083,285,6,-0.001056166,0.02327156,-2.45786e-05,2.373848E-09,6.489608E-09,1.176059E-08,1.9549E-09,0.0081,0.0226,0,273.3792,,
	08/30/2022 16:59:23.587,2.21154e+06,0.0086,287,6,-0.001048852,-0.6408787,0.000672187,4.016733E-09,7.806666E-09,2.220029E-08,-6.631901E-09,0.0137,0.0266,0,194.3536,,
	08/30/2022 16:59:23.732,2211543.844,0.0084,289,6,-0.001051182,-0.3136234,0.000329675,3.338544E-09,5.37267E-09,1.731034E-08,-3.959063E-09,0.0116,0.0183,0,160.9286,,
	08/30/2022 16:59:23.867,2.21154e+06,0.0051,291,6,-0.001060111,1.92606,-0.00204184,4.431456E-09,3.774087E-09,2.416646E-08,6.663109E-09,0.015,0.0128,0,85.16586,,
	08/30/2022 16:59:24.007,2.21154e+06,0.0087,293,6,-0.001058705,0.140419,-0.000148662,2.903058E-09,5.56141E-09,1.773639E-08,1.175222E-08,0.0102,0.0189,0,191.5708,,
	08/30/2022 16:59:24.157,2.21154e+06,0.009,295,6,-0.001060979,2.030064,-0.00215386,3.923288E-09,6.094794E-09,2.288812E-08,7.051585E-09,0.013,0.0207,0,155.3491,,
	08/30/2022 16:59:24.305,2.21154e+06,0.006,297,6,-0.001059958,1.300264,-0.00137823,4.712852E-09,5.505796E-09,3.018292E-08,4.460321E-09,0.0169,0.0188,0,116.8251,,
	08/30/2022 16:59:24.450,2.21154e+06,0.0058,299,6,-0.001058766,1.537773,-0.00162814,4.880366E-09,4.179174E-09,3.155339E-08,5.875647E-09,0.0174,0.0142,0,85.63239,,
	08/30/2022 16:59:24.598,2.21154e+06,0.0066,301,6,-0.001061871,1.861795,-0.00197699,2.702447E-09,8.495903E-09,1.489976E-08,1.575073E-08,0.0092,0.0289,0,314.3782,,
	08/30/2022 16:59:24.734,2.21154e+06,0.0051,303,6,-0.001059368,1.670679,-0.00176986,4.081764E-09,5.004063E-09,2.01902E-08,8.745979E-09,0.0139,0.017,0,122.5956,,
	08/30/2022 16:59:24.874,2.21154e+06,0.0069,305,6,-0.001062188,1.564323,-0.00166161,4.644658E-09,4.626519E-09,2.185226E-08,7.456005E-09,0.0158,0.0157,0,99.60946,,
	08/30/2022 16:59:25.019,2.21155e+06,0.0085,307,6,-0.001059575,1.691313,-0.00179207,3.616568E-09,4.12121E-09,1.508291E-08,7.055753E-09,0.0123,0.014,0,113.9536,,
	08/30/2022 16:59:25.159,2.21155e+06,0.0053,309,6,-0.001043518,1.254736,-0.00130934,3.473689E-09,3.687809E-09,1.668469E-08,5.070176E-09,0.0118,0.0126,0,106.164,,
	08/30/2022 16:59:25.301,2.21155e+06,0.0057,311,6,-0.001059296,1.297453,-0.00137439,3.764997E-09,4.527937E-09,1.611501E-08,5.807368E-09,0.0128,0.0154,0,120.264,,
	08/30/2022 16:59:25.445,2.21155e+06,0.0077,313,6,-0.001060807,1.408887,-0.00149456,4.706788E-09,4.977646E-09,2.242735E-08,7.792355E-09,0.016,0.0169,0,105.7546,,
	08/30/2022 16:59:25.591,2.21155e+06,0.0081,315,6,-0.001061729,1.544493,-0.00163983,6.740432E-09,6.393656E-09,3.221196E-08,9.760082E-09,0.0229,0.0217,0,94.85529,,
	08/30/2022 16:59:25.731,2.21155e+06,0.0099,317,6,-0.001060335,1.50806,-0.00159905,3.26744E-09,3.563827E-09,1.543932E-08,5.373542E-09,0.0111,0.0121,0,109.0709,,
	08/30/2022 16:59:25.872,2.21155e+06,0.0056,319,6,-0.001059187,1.572126,-0.00166518,4.506813E-09,2.854278E-09,2.165826E-08,4.356874E-09,0.0153,0.009699999,0,63.33251,,
	08/30/2022 16:59:26.012,2.21155e+06,0.0058,321,6,-0.001065587,1.451687,-0.0015469,3.844448E-09,4.574797E-09,1.894366E-08,6.583013E-09,0.013,0.0146,0,118.9975,,
	08/30/2022 16:59:26.162,2.21155e+06,0.0088,323,6,-0.001060269,1.381667,-0.00146494,2.967405E-09,5.395783E-09,1.447538E-08,7.42924E-09,0.0101,0.0175,0,181.8351,,
	08/30/2022 16:59:26.297,2.21155e+06,0.0055,325,6,-0.001065464,1.401803,-0.00149357,3.165674E-09,5.720366E-09,1.583245E-08,7.587788E-09,0.0108,0.0194,0,180.6998,,
	08/30/2022 16:59:26.437,2.21155e+06,0.0096,327,6,-0.001058728,1.34129,-0.00142006,3.648282E-09,5.950856E-09,1.772753E-08,8.05754E-09,0.0124,0.0185,0,163.1139,,
	08/30/2022 16:59:26.578,2.21155e+06,0.0114,329,6,-0.001058723,1.38902,-0.00147059,3.496415E-09,5.059925E-09,1.695819E-08,7.087427E-09,0.0118,0.0172,0,144.7175,,
	08/30/2022 16:59:26.715,2.21155e+06,0.0069,331,6,-0.001059286,1.309666,-0.00138731,2.440836E-09,5.356231E-09,1.170999E-08,6.824382E-09,0.0083,0.0182,0,219.4425,,
	08/30/2022 16:59:26.857,2.21155e+06,0.0087,333,6,-0.001059365,1.401031,-0.0014842,4.824383E-09,6.417115E-09,2.286958E-08,1.230725E-08,0.0164,0.0218,0,133.0142,,
	08/30/2022 16:59:26.992,2.21155e+06,0.0055,335,6,-0.001058714,1.526962,-0.00161662,4.302036E-09,3.883998E-09,2.076998E-08,5.708388E-09,0.0145,0.0132,0,90.28279,,
	08/30/2022 16:59:27.137,2.21155e+06,0.0087,337,6,-0.001059398,1.444812,-0.00153063,3.037193E-09,6.299551E-09,1.448432E-08,9.117914E-09,0.0103,0.0214,0,207.4136,,
	08/30/2022 16:59:27.282,2.21155e+06,0.0088,339,6,-0.001060185,1.323772,-0.00140344,4.55847E-09,5.565439E-09,2.178757E-08,9.916203E-09,0.0155,0.0189,0,122.0901,,
	08/30/2022 16:59:27.421,2.21155e+06,0.0064,341,6,-0.001059477,1.432947,-0.00151817,5.119286E-09,6.06216E-09,2.447461E-08,1.095738E-08,0.0174,0.0206,0,118.4181,,
	08/30/2022 16:59:27.567,2.21155e+06,0.0083,343,6,-0.00105948,1.446488,-0.00153253,4.147836E-09,5.653688E-09,1.657472E-08,8.172236E-09,0.0141,0.0183,0,136.3045,,
	08/30/2022 16:59:27.702,2.21155e+06,0.0051,345,6,-0.001059205,1.497002,-0.00158563,4.476662E-09,4.150063E-09,2.134875E-08,6.121569E-09,0.0152,0.0133,0,92.70443,,
	08/30/2022 16:59:27.848,2211547.96,0.0093,347,6,-0.001060008,1.475779,-0.00156434,3.750698E-09,4.827762E-09,1.842465E-08,7.171132E-09,0.0128,0.0164,0,128.7164,,
	08/30/2022 16:59:27.987,2.21155e+06,0.0067,349,6,-0.001058654,1.349338,-0.00142848,4.206184E-09,5.769484E-09,2.105389E-08,7.860986E-09,0.0142,0.0196,0,137.1667,,
	08/30/2022 16:59:28.130,2.21155e+06,0.0099,351,6,-0.001059744,1.503168,-0.00159297,4.11786E-09,6.008245E-09,1.949474E-08,1.028601E-08,0.014,0.0192,0,145.907,,
	08/30/2022 16:59:28.280,2.21155e+06,0.0108,353,6,-0.001069413,1.278937,-0.00136771,4.244699E-09,5.996153E-09,1.710435E-08,8.20441E-09,0.0145,0.0194,0,141.2622,,
	08/30/2022 16:59:28.415,2211548.527,0.0058,355,6,-0.001063102,1.543093,-0.00164047,4.677944E-09,5.703418E-09,2.24795E-08,8.12781E-09,0.0159,0.019,0,121.9215,,
	08/30/2022 16:59:28.558,2.21155e+06,0.0079,357,6,-0.001058728,1.565849,-0.00165781,4.001486E-09,5.824718E-09,1.887121E-08,8.501143E-09,0.0136,0.0198,0,145.5639,,
	08/30/2022 16:59:28.704,2.21155e+06,0.0075,359,6,-0.001058935,1.558643,-0.0016505,4.648588E-09,3.679239E-09,2.175386E-08,5.576704E-09,0.0158,0.0125,0,79.14745,,
	08/30/2022 16:59:28.844,2.21155e+06,0.0087,361,6,-0.001059594,1.496025,-0.00158518,2.470553E-09,5.505278E-09,1.154259E-08,1.03142E-08,0.0084,0.0187,0,222.8359,,
	08/30/2022 16:59:28.984,2211549.096,0.0083,363,6,-0.001059053,1.547829,-0.00163923,3.325545E-09,3.912873E-09,1.552128E-08,9.077349E-09,0.0113,0.0133,0,117.6611,,
	08/30/2022 16:59:29.125,2.21155e+06,0.0097,365,6,-0.001059261,1.493078,-0.00158156,2.795269E-09,6.593698E-09,1.308648E-08,9.751808E-09,0.0095,0.0224,0,235.8878,,
	08/30/2022 16:59:29.264,2.21155e+06,0.0081,367,6,-0.001059553,1.510876,-0.00160085,3.206945E-09,6.123484E-09,1.496382E-08,9.17878E-09,0.0109,0.0208,0,190.9445,,
	08/30/2022 16:59:29.401,2.21155e+06,0.0056,369,6,-0.001059292,1.605463,-0.00170065,3.501067E-09,3.385858E-09,1.643634E-08,5.248741E-09,0.0119,0.0115,0,96.70933,,
	08/30/2022 16:59:29.544,2.21155e+06,0.0075,371,6,-0.001059275,1.631121,-0.00172781,5.149334E-09,6.091605E-09,2.397043E-08,1.278001E-08,0.0175,0.0207,0,118.2989,,
	08/30/2022 16:59:29.690,2.21155e+06,0.0083,373,6,-0.001059809,1.593077,-0.00168836,3.824919E-09,3.060369E-09,1.783366E-08,8.09313E-09,0.013,0.0104,0,80.01133,,
	08/30/2022 16:59:29.829,2.21155e+06,0.0055,375,6,-0.001059727,1.575201,-0.00166928,4.3255E-09,3.780297E-09,2.005642E-08,5.776931E-09,0.0147,0.0129,0,87.3956,,
	08/30/2022 16:59:29.972,2.21155e+06,0.0088,377,6,-0.001059657,1.557653,-0.00165058,4.325471E-09,3.974616E-09,2.00552E-08,6.134229E-09,0.0147,0.0135,0,91.88863,,
	08/30/2022 16:59:30.112,2.21155e+06,0.0057,379,6,-0.001059485,1.609993,-0.00170576,4.207636E-09,4.151824E-09,1.947208E-08,6.409969E-09,0.0143,0.0141,0,98.67355,,
	08/30/2022 16:59:30.246,2.21155e+06,0.0059,381,6,-0.00105995,1.581455,-0.00167626,3.620034E-09,4.003077E-09,1.683842E-08,6.201756E-09,0.0123,0.0136,0,110.5812,,
	08/30/2022 16:59:30.389,2.21155e+06,0.0083,383,6,-0.001059738,1.571133,-0.00166499,4.973561E-09,5.269566E-09,1.99509E-08,8.131834E-09,0.0169,0.0179,0,105.9516,,
	08/30/2022 16:59:30.536,2211550.648,0.0083,385,6,-0.001059986,1.570339,-0.00166454,4.767363E-09,4.267742E-09,2.142747E-08,9.239574E-09,0.0162,0.0145,0,89.51997,,
	08/30/2022 16:59:30.676,2.21155e+06,0.0083,387,6,-0.001059787,1.57423,-0.00166835,3.147379E-09,4.386689E-09,1.460281E-08,6.846471E-09,0.0107,0.0149,0,139.3759,,
	08/30/2022 16:59:30.810,2.21155e+06,0.005,389,6,-0.001059133,1.590408,-0.00168445,3.44286E-09,3.002255E-09,1.598666E-08,4.702592E-09,0.0117,0.0102,0,87.20237,,
	08/30/2022 16:59:30.957,2.21155e+06,0.01,391,6,-0.001074604,1.537714,-0.00165243,4.174399E-09,6.959829E-09,1.958332E-08,1.059208E-08,0.0142,0.0235,0,166.7265,,
	08/30/2022 16:59:31.102,2.21155e+06,0.0099,393,6,-0.001059477,1.579742,-0.0016737,3.354726E-09,5.180634E-09,1.553396E-08,8.095607E-09,0.0114,0.0176,0,154.4279,,
	08/30/2022 16:59:31.237,2.21155e+06,0.0053,395,6,-0.001059431,1.609055,-0.00170468,4.648805E-09,4.297147E-09,2.158516E-08,6.777004E-09,0.0158,0.0146,0,92.43551,,
	08/30/2022 16:59:31.381,2.21155e+06,0.0051,397,6,-0.001059317,1.618446,-0.00171445,4.236336E-09,5.47473E-09,1.965669E-08,8.552826E-09,0.0144,0.0186,0,129.2327,,
	08/30/2022 16:59:31.521,2.21155e+06,0.0083,399,6,-0.001059208,1.590214,-0.00168437,4.29658E-09,6.417348E-09,1.992103E-08,1.249117E-08,0.0146,0.0218,0,149.3595,,
	08/30/2022 16:59:31.666,2.21155e+06,0.0084,401,6,-0.001059722,1.596655,-0.00169201,5.267513E-09,2.973245E-09,2.451426E-08,7.07759E-09,0.0179,0.0101,0,56.44496,,
	08/30/2022 16:59:31.813,2.21155e+06,0.0081,403,6,-0.001059555,1.59026,-0.00168497,3.649219E-09,2.972703E-09,1.699882E-08,7.256329E-09,0.0124,0.0101,0,81.46136,,
	08/30/2022 16:59:31.959,2.21155e+06,0.01,405,6,-0.001061303,1.594707,-0.00169247,3.59115E-09,4.480023E-09,1.690673E-08,7.0315E-09,0.0122,0.0152,0,124.7518,,
	08/30/2022 16:59:32.105,2.21155e+06,0.0059,407,6,-0.001059759,1.623688,-0.00172072,4.527962E-09,3.620773E-09,2.168657E-08,5.742277E-09,0.0154,0.0123,0,79.96475,,
	08/30/2022 16:59:32.251,2.21155e+06,0.0057,409,6,-0.001060043,1.578318,-0.00167308,3.10083E-09,4.652574E-09,1.471941E-08,7.233505E-09,0.0105,0.0143,0,150.0428,,
	08/30/2022 16:59:32.394,2.21155e+06,0.0067,411,6,-0.001060097,1.584204,-0.00167941,4.353898E-09,4.858511E-09,2.040247E-08,7.586872E-09,0.0148,0.0165,0,111.5899,,
	08/30/2022 16:59:32.536,2.21155e+06,0.01,413,6,-0.001059832,1.614542,-0.00171114,2.441632E-09,7.066647E-09,1.141698E-08,1.323965E-08,0.0083,0.024,0,289.4231,,
	08/30/2022 16:59:32.675,2.21155e+06,0.0083,415,6,-0.001059682,1.618877,-0.00171549,5.149275E-09,4.385966E-09,2.412532E-08,8.535187E-09,0.0175,0.0149,0,85.17638,,
	08/30/2022 16:59:32.814,2.21155e+06,0.0077,417,6,-0.001059704,1.604008,-0.00169977,3.321602E-09,5.829087E-09,1.552327E-08,9.281911E-09,0.0113,0.0198,0,175.4902,,
	08/30/2022 16:59:32.950,2.21155e+06,0.0054,419,6,-0.001059233,1.587446,-0.00168148,2.912565E-09,4.622168E-09,1.374012E-08,7.249094E-09,0.0099,0.0157,0,158.6975,,
	08/30/2022 16:59:33.094,2.21155e+06,0.0067,421,6,-0.001059729,1.646635,-0.00174499,3.205083E-09,4.856504E-09,1.503641E-08,7.392415E-09,0.011,0.0165,0,151.5251,,
	08/30/2022 16:59:33.235,2.21155e+06,0.0086,423,6,-0.001059576,1.60894,-0.00170479,2.265233E-09,5.505212E-09,1.048937E-08,1.140264E-08,0.0077,0.0187,0,243.0308,,
	08/30/2022 16:59:33.374,2.21155e+06,0.0066,425,6,-0.001059827,1.685717,-0.00178657,3.090176E-09,4.712213E-09,1.448651E-08,7.378711E-09,0.0105,0.016,0,152.4901,,
	08/30/2022 16:59:33.515,2.21155e+06,0.0051,427,6,-0.001059676,1.711962,-0.00181413,4.76733E-09,4.356838E-09,2.202515E-08,7.261747E-09,0.0162,0.0148,0,91.38949,,
	08/30/2022 16:59:33.660,2.21155e+06,0.0067,429,6,-0.001059643,1.678463,-0.00177857,5.413899E-09,3.120397E-09,2.315319E-08,5.198118E-09,0.0184,0.0106,0,57.63679,,
	08/30/2022 16:59:33.805,2.21155e+06,0.0067,431,6,-0.001059755,1.574747,-0.00166885,3.871639E-09,5.002188E-09,1.809802E-08,9.501826E-09,0.0132,0.0162,0,129.2008,,
	08/30/2022 16:59:33.947,2.21155e+06,0.0052,433,6,-0.001059634,1.680305,-0.00178051,4.207366E-09,5.211191E-09,1.956788E-08,8.449199E-09,0.0143,0.0177,0,123.8587,,
	08/30/2022 16:59:34.093,2.21155e+06,0.01,435,6,-0.00105973,1.644829,-0.00174307,4.178918E-09,5.594073E-09,1.74917E-08,9.113676E-09,0.0142,0.019,0,133.8642,,
	08/30/2022 16:59:34.231,2.21155e+06,0.0083,437,6,-0.001059799,1.650398,-0.00174909,4.266032E-09,6.094714E-09,1.979591E-08,1.203735E-08,0.0145,0.0207,0,142.8661,,
	08/30/2022 16:59:34.372,2.21155e+06,0.0071,439,6,-0.001059436,1.671648,-0.001771,3.590437E-09,4.591779E-09,1.654931E-08,7.565254E-09,0.0122,0.0147,0,127.8891,,
	08/30/2022 16:59:34.513,2.21155e+06,0.0057,441,6,-0.001059081,1.705786,-0.00180657,3.650551E-09,4.562135E-09,1.683764E-08,7.525819E-09,0.0124,0.0155,0,124.9711,,
	08/30/2022 16:59:34.652,2.21155e+06,0.0082,443,6,-0.001059418,1.678577,-0.00177831,3.354124E-09,5.004058E-09,1.547154E-08,8.270606E-09,0.0114,0.017,0,149.1912,,
	08/30/2022 16:59:34.793,2.21155e+06,0.0085,445,6,-0.001059356,1.673485,-0.00177282,3.883886E-09,4.003371E-09,1.787123E-08,6.630209E-09,0.0132,0.0136,0,103.0764,,
	08/30/2022 16:59:34.943,2.21156e+06,0.0083,447,6,-0.001059638,1.683344,-0.00178374,4.913597E-09,5.889128E-09,1.881423E-08,1.163004E-08,0.0167,0.0175,0,119.8537,,
	08/30/2022 16:59:35.083,2.21156e+06,0.005,449,6,-0.001058737,1.701523,-0.00180147,3.148177E-09,4.945151E-09,1.450964E-08,8.123695E-09,0.0107,0.0168,0,157.0798,,
	08/30/2022 16:59:35.218,2.21156e+06,0.0054,451,6,-0.001059568,1.697065,-0.00179816,3.855206E-09,5.358954E-09,1.786462E-08,8.913944E-09,0.0131,0.0182,0,139.0056,,
	08/30/2022 16:59:35.362,2.21156e+06,0.0084,453,6,-0.001059654,1.67626,-0.00177626,4.443192E-09,5.622879E-09,2.058026E-08,1.239449E-08,0.0151,0.0191,0,126.5505,,
	08/30/2022 16:59:35.508,2.21156e+06,0.0066,455,6,-0.001059627,1.66593,-0.00176526,4.531457E-09,4.475122E-09,1.783006E-08,7.326221E-09,0.0154,0.0152,0,98.75681,,
	08/30/2022 16:59:35.648,2.21156e+06,0.0084,457,6,-0.001059743,1.65852,-0.0017576,5.209247E-09,5.534841E-09,2.213607E-08,9.028151E-09,0.0177,0.0188,0,106.2503,,
	08/30/2022 16:59:35.790,2.21156e+06,0.006,459,6,-0.001059734,1.685246,-0.00178591,2.795236E-09,4.858358E-09,1.293574E-08,7.981819E-09,0.0095,0.0165,0,173.8085,,
	08/30/2022 16:59:35.928,2.21156e+06,0.0072,461,6,-0.001059729,1.653458,-0.00175222,3.853901E-09,3.738693E-09,1.780342E-08,7.651641E-09,0.0131,0.0127,0,97.01063,,
	08/30/2022 16:59:36.074,2211556.186,0.0087,463,6,-0.001059801,1.675308,-0.00177549,2.824883E-09,5.917609E-09,1.301282E-08,1.187802E-08,0.0096,0.0201,0,209.4815,,
	08/30/2022 16:59:36.216,2.21156e+06,0.0059,465,6,-0.001059042,1.713112,-0.00181426,3.383418E-09,3.325454E-09,1.295783E-08,5.549157E-09,0.0115,0.0113,0,98.28682,,
	08/30/2022 16:59:36.348,2.21156e+06,0.0056,467,6,-0.001059475,1.662214,-0.00176107,3.148439E-09,3.002619E-09,1.455899E-08,4.963873E-09,0.0107,0.0102,0,95.36852,,
	08/30/2022 16:59:36.484,2.21156e+06,0.0056,469,6,-0.001059301,1.672428,-0.0017716,4.237951E-09,3.090595E-09,1.646307E-08,5.071435E-09,0.0144,0.0105,0,72.92664,,
	08/30/2022 16:59:36.618,2.21156e+06,0.0053,471,6,-0.001059115,1.654589,-0.0017524,2.795434E-09,4.826779E-09,1.298521E-08,7.765699E-09,0.0095,0.0154,0,172.6665,,
	08/30/2022 16:59:36.758,2.21156e+06,0.0052,473,6,-0.001059508,1.718014,-0.00182025,4.650494E-09,5.711899E-09,2.12205E-08,9.290391E-09,0.0158,0.0194,0,122.8235,,
	08/30/2022 16:59:36.898,2.21156e+06,0.0051,475,6,-0.001059662,1.799978,-0.00190737,3.237511E-09,4.681334E-09,1.453672E-08,7.772134E-09,0.011,0.015,0,144.5967,,
	08/30/2022 16:59:37.037,2.21156e+06,0.005,477,6,-0.001059829,1.814844,-0.00192342,3.943746E-09,3.680672E-09,1.522227E-08,6.550243E-09,0.0134,0.0125,0,93.32933,,
	08/30/2022 16:59:37.177,2.21156e+06,0.0092,479,6,-0.001059795,1.780046,-0.00188648,4.238094E-09,6.594645E-09,1.895304E-08,1.174111E-08,0.0144,0.0224,0,155.604,,
	08/30/2022 16:59:37.323,2.21156e+06,0.0078,481,6,-0.001059867,1.87269,-0.0019848,4.032169E-09,4.946714E-09,1.517515E-08,9.165766E-09,0.0137,0.0168,0,122.6812,,
	08/30/2022 16:59:37.464,2.21156e+06,0.0072,483,6,-0.001059911,1.891645,-0.00200498,3.355196E-09,5.53587E-09,1.475585E-08,1.036618E-08,0.0114,0.0188,0,164.994,,
	08/30/2022 16:59:37.603,2211557.715,0.008,485,6,-0.001059871,1.882521,-0.00199523,3.502516E-09,5.712354E-09,1.358247E-08,1.185664E-08,0.0119,0.0194,0,163.0929,,
	08/30/2022 16:59:37.744,2.21156e+06,0.0104,487,6,-0.00105993,1.881748,-0.00199452,4.00261E-09,5.859178E-09,1.759962E-08,1.096765E-08,0.0136,0.0191,0,146.3839,,
	08/30/2022 16:59:37.884,2.21156e+06,0.0051,489,6,-0.00105973,1.903656,-0.00201736,4.208869E-09,3.8566E-09,1.581454E-08,7.223236E-09,0.0143,0.0131,0,91.63033,,
	08/30/2022 16:59:38.025,2.21156e+06,0.0108,491,6,-0.001059892,1.871284,-0.00198336,2.914188E-09,6.300973E-09,1.283745E-08,1.174022E-08,0.0099,0.0214,0,216.2171,,
	08/30/2022 16:59:38.167,2211558.279,0.0066,493,6,-0.001059868,1.874424,-0.00198664,3.384475E-09,4.328543E-09,1.490906E-08,9.977492E-09,0.0115,0.0147,0,127.8941,,
	08/30/2022 16:59:38.307,2.21156e+06,0.0052,495,6,-0.001059776,1.881306,-0.00199376,4.415806E-09,4.415841E-09,1.945184E-08,8.21003E-09,0.015,0.015,0,100.0008,,
	08/30/2022 16:59:38.455,2.21156e+06,0.01,497,6,-0.00105958,1.874542,-0.00198623,5.150979E-09,5.092659E-09,1.97506E-08,1.182664E-08,0.0175,0.0173,0,98.8678,,
	08/30/2022 16:59:38.599,2.21156e+06,0.0075,499,6,-0.001059701,1.876354,-0.00198837,5.828492E-09,4.975555E-09,2.573668E-08,9.24251E-09,0.0198,0.0161,0,85.36608,,
	08/30/2022 16:59:38.745,2.21156e+06,0.0058,501,6,-0.001059609,1.880341,-0.00199243,5.151755E-09,3.208966E-09,2.274057E-08,5.987965E-09,0.0175,0.0109,0,62.28878,,
	08/30/2022 16:59:38.887,2.21156e+06,0.0091,503,6,-0.001059855,1.871939,-0.00198398,3.943498E-09,6.830948E-09,1.735962E-08,1.266095E-08,0.0134,0.0232,0,173.2205,,