File: Cell-test-data/SiMP-LFP-LSCE/JB0_SiMP-LFP-LSCE_03C_Channel_84_StatisticByCycle.CSV
Date_Time                    ,Test Time (s),Step Time (s),Cycle Index,Step Index,Current (A),Voltage (V),Power (W),Charge Capacity (Ah),Discharge Capacity (Ah),Charge Energy (Wh),Discharge Energy (Wh),Charge Time (s),Discharge Time (s),V_Max_On_Cycle (V),Coulombic Efficiency (%),mAh/g
	07/21/2022 16:55:51.762,181304,63187.7,1,3,-0.0001589973,2.499929,-0.000397482,0.003308329,0.002790356,0.01096983,0.00828709,74906.11,63179.71,0,84.34338,,
	07/23/2022 03:44:55.021,306647,61473.6,2,3,-0.0001589941,2.499996,-0.000397485,0.002820455,0.002714647,0.009113125,0.008038769,63861.37,61465.48,0,96.24857,,
	07/24/2022 13:36:51.818,428564,60051.4,3,3,-0.0001589926,2.499947,-0.000397473,0.002731986,0.002651817,0.008795532,0.007826897,61857.32,60043.71,0,97.06555,,
	07/24/2022 18:07:58.802,444831,7889.14,4,6,-0.001059974,2.499865,-0.00264979,0.002466609,0.002322639,0.008061515,0.006733307,8376.621,7888.131,0,94.16321,,
	07/24/2022 22:25:38.300,460290,7651.36,5,6,-0.001060021,2.499987,-0.00265004,0.002298909,0.002252587,0.00749506,0.006519358,7807.108,7650.385,0,97.98507,,
	07/25/2022 02:38:41.522,475473,7521.44,6,6,-0.001060006,2.499907,-0.00264992,0.002255868,0.002214307,0.007354297,0.006406049,7660.715,7520.511,0,98.15768,,
	07/25/2022 06:47:41.254,490413,7398.93,7,6,-0.001059964,2.499968,-0.00264988,0.002220187,0.002178272,0.007237515,0.006300616,7539.785,7397.98,0,98.11212,,
	07/25/2022 10:52:51.860,505124,7286.43,8,6,-0.001060024,2.49988,-0.00264993,0.002185879,0.002145173,0.007125805,0.006204827,7423.163,7285.565,0,98.1378,,
	07/25/2022 14:54:14.195,519605.962,7174.03,9,6,-0.001060031,2.499985,-0.00265006,0.002151781,0.002112122,0.007015268,0.006109862,7307.301,7173.08,0,98.15691,,
	07/25/2022 18:52:20.998,533893,7074.7,10,6,-0.001060001,2.499889,-0.00264988,0.002123408,0.002082868,0.006921416,0.006027722,7211.128,7073.816,0,98.09085,,
	07/25/2022 22:46:21.279,547933,6953.51,11,6,-0.00105998,2.499973,-0.00264992,0.002086546,0.00204711,0.006802834,0.00592279,7085.756,6952.603,0,98.11002,,
	07/26/2022 02:36:40.907,561753,6844.96,12,6,-0.001059934,2.499992,-0.00264983,0.002053471,0.002015159,0.006696331,0.005830972,6973.717,6844.099,0,98.1343,,
	07/26/2022 06:23:25.609,575357.376,6739.197,13,6,-0.001059909,2.499987,-0.00264976,0.002021399,0.001984002,0.006592932,0.005741762,6864.563,6738.332,0,98.14994,,
	07/26/2022 10:06:40.380,588752.147,6637.36,14,6,-0.001059936,2.499971,-0.00264981,0.00198948,0.001954032,0.00648982,0.005655443,6756.493,6636.504,0,98.21825,,
	07/26/2022 13:46:45.496,601957,6544.72,15,6,-0.001060027,2.499992,-0.00265006,0.001960994,0.001926794,0.006397879,0.00557831,6659.484,6543.875,0,98.25597,,
	07/26/2022 17:24:26.810,615019,6478.81,16,6,-0.001059992,2.499973,-0.00264995,0.001938025,0.001907431,0.006322606,0.005525669,6581.566,6477.958,0,98.42139,,
	07/26/2022 20:58:52.905,627885,6371.99,17,6,-0.00106003,2.499966,-0.00265004,0.001912025,0.001875964,0.006237763,0.005433936,6493.198,6371.207,0,98.11397,,
	07/27/2022 00:29:59.130,640551,6282.12,18,6,-0.001059992,2.499958,-0.00264994,0.001879662,0.001849508,0.006134875,0.005357201,6383.242,6281.325,0,98.3958,,
	07/27/2022 03:58:15.901,653048,6196.07,19,6,-0.001059964,2.499987,-0.0026499,0.001855116,0.00182416,0.006055568,0.00528489,6299.836,6195.297,0,98.33136,,
	07/27/2022 07:23:50.416,665382,6118.08,20,6,-0.001059977,2.49999,-0.00264993,0.001830221,0.001801146,0.005975143,0.005219007,6215.603,6117.271,0,98.41141,,
	07/27/2022 10:46:45.802,677558,6038.402,21,6,-0.001060016,2.5,-0.00265004,0.001806912,0.001777726,0.005899796,0.005152031,6136.178,6037.642,0,98.38474,,
	07/27/2022 14:07:01.954,689574,5958.66,22,6,-0.001060089,2.499977,-0.0026502,0.001783471,0.00175429,0.005823994,0.005085333,6056.676,5957.919,0,98.36381,,
	07/27/2022 17:25:23.307,701475,5907.09,23,6,-0.001060052,2.499949,-0.00265008,0.001764826,0.001739162,0.005762671,0.005044925,5993.446,5906.335,0,98.54581,,
	07/27/2022 20:41:26.343,713238,5828.69,24,6,-0.001059958,2.499973,-0.00264987,0.001747147,0.001716051,0.00570409,0.004978457,5933.537,5827.965,0,98.22018,,
	07/27/2022 23:54:05.917,724798,5733.83,25,6,-0.001060019,2.499933,-0.00264998,0.001715257,0.001688057,0.005603433,0.004895465,5824.916,5733.128,0,98.41427,,
	07/28/2022 03:04:19.161,736211,5664.16,26,6,-0.001060031,2.499981,-0.00265006,0.001692743,0.001667554,0.005530561,0.0048365,5748.294,5663.445,0,98.51192,,
	07/28/2022 06:12:18.490,747490,5597.01,27,6,-0.001059946,2.499985,-0.00264985,0.001672933,0.001647743,0.005466469,0.004780052,5681.477,5596.17,0,98.49424,,
	07/28/2022 09:18:02.603,758634.37,5528.4,28,6,-0.001060022,2.499969,-0.00265002,0.001653142,0.001627453,0.005402322,0.004721718,5614.623,5527.354,0,98.44606,,
	07/28/2022 12:21:30.557,769642,5462.24,29,6,-0.001059978,2.499981,-0.00264992,0.001632633,0.00160804,0.005336082,0.00466611,5544.639,5461.394,0,98.49367,,
	07/28/2022 15:22:54.236,780526,5400.96,30,6,-0.001060061,2.499968,-0.00265012,0.001614192,0.001590099,0.005276274,0.0046158,5481.698,5400.13,0,98.50741,,
	07/28/2022 18:22:45.289,791317,5358.91,31,6,-0.001060105,2.499989,-0.00265025,0.001599305,0.001577736,0.005226932,0.00458178,5431.34,5358.203,0,98.65134,,
	07/28/2022 21:20:13.121,801964.888,5277.81,32,6,-0.001060019,2.499998,-0.00265005,0.001581089,0.00155384,0.005167808,0.004512069,5369.294,5277.111,0,98.27661,,
	07/29/2022 00:15:12.078,812464,5210,33,6,-0.001059988,2.499985,-0.00264995,0.001557223,0.001533847,0.005091465,0.004453825,5288.239,5209.304,0,98.49887,,
	07/29/2022 03:08:00.969,822833,5144.02,34,6,-0.001059946,2.499979,-0.00264984,0.001538278,0.001514423,0.005030078,0.004398138,5224.101,5143.34,0,98.44921,,
	07/29/2022 05:58:47.251,833079,5087.029,35,6,-0.001060021,2.499941,-0.00264999,0.001519032,0.001497611,0.004967709,0.004349407,5158.511,5086.315,0,98.58984,,
	07/29/2022 08:47:33.999,843206,5025.29,36,6,-0.001060017,2.49999,-0.00265003,0.001501917,0.001479467,0.004912135,0.004297363,5100.706,5024.631,0,98.50522,,
	07/29/2022 11:34:26.727,853218,4970.78,37,6,-0.001060055,2.499931,-0.00265006,0.001484509,0.001463398,0.00485592,0.004250754,5041.188,4970.069,0,98.57789,,
	07/29/2022 14:19:35.063,863127,4918.18,38,6,-0.00106001,2.499886,-0.0026499,0.001469222,0.001448002,0.004806216,0.00420823,4989.402,4917.517,0,98.55571,,
	07/29/2022 17:03:56.045,872987.812,4899.65,39,6,-0.001060055,2.499966,-0.0026501,0.00146064,0.00144257,0.004776725,0.004196103,4960.606,4898.974,0,98.76284,,
	07/29/2022 19:46:45.387,882757,4846.33,40,6,-0.001059994,2.499952,-0.00264993,0.001449366,0.001426876,0.004738857,0.004150467,4922.28,4845.711,0,98.44828,,
	07/29/2022 22:27:00.054,892372,4770.06,41,6,-0.00106007,2.499952,-0.00265012,0.001426336,0.001404337,0.004665481,0.004083305,4843.891,4769.444,0,98.45764,,
	07/30/2022 01:04:59.917,901852,4706.026,42,6,-0.001060044,2.499941,-0.00265005,0.001405535,0.001385489,0.004598811,0.004027741,4773.167,4705.317,0,98.5738,,
	07/30/2022 03:41:03.551,911215,4647.61,43,6,-0.00106004,2.499983,-0.00265008,0.001388522,0.001368325,0.004544124,0.00397789,4715.333,4647.013,0,98.54546,,
	07/30/2022 06:15:20.704,920472,4595.52,44,6,-0.00106007,2.499996,-0.00265017,0.001372496,0.001352946,0.004492099,0.003933631,4660.932,4594.896,0,98.57555,,
	07/30/2022 08:47:58.813,929631,4548.08,45,6,-0.001059934,2.499994,-0.00264983,0.001357282,0.001338972,0.004442722,0.003893212,4609.37,4547.452,0,98.65098,,
	07/30/2022 11:18:56.581,938688.348,4498.604,46,6,-0.001059985,2.499981,-0.00264994,0.001342359,0.001324396,0.004394319,0.00385084,4558.495,4498.012,0,98.66187,,
	07/30/2022 13:48:25.952,947658,4454.13,47,6,-0.001060123,2.499983,-0.00265029,0.001329382,0.001311354,0.004352173,0.003813625,4514.569,4453.502,0,98.64391,,
	07/30/2022 16:16:58.292,956570,4427.41,48,6,-0.001060041,2.499983,-0.00265008,0.001320425,0.001303549,0.004322324,0.003793885,4484.25,4426.814,0,98.72193,,
	07/30/2022 18:44:18.476,965410,4388.67,49,6,-0.001060022,2.499996,-0.00265005,0.00131057,0.001292097,0.004288892,0.003761507,4450.858,4388.111,0,98.59042,,
	07/30/2022 21:09:31.175,974123,4324.14,50,6,-0.00106003,2.499979,-0.00265005,0.001292071,0.001273067,0.004229531,0.003704021,4387.94,4323.562,0,98.52914,,
	07/30/2022 23:32:48.710,982720.477,4269.36,51,6,-0.001060031,2.499983,-0.00265006,0.001274322,0.001256948,0.004172918,0.00365689,4327.528,4268.787,0,98.63663,,
	07/31/2022 01:54:32.603,991224,4222.35,52,6,-0.001060029,2.499994,-0.00265007,0.001260601,0.001243084,0.004128247,0.003616868,4280.9,4221.753,0,98.61037,,
	07/31/2022 04:14:44.056,999636,4176.85,53,6,-0.001060017,2.49996,-0.00265,0.00124677,0.001229667,0.004083295,0.00357787,4233.949,4176.255,0,98.62823,,
	07/31/2022 06:33:29.574,1.00796e+06,4136.23,54,6,-0.001060036,2.499979,-0.00265007,0.001233453,0.001217733,0.004040153,0.003543144,4188.684,4135.683,0,98.72555,,
	07/31/2022 08:50:54.952,1.01621e+06,4095.46,55,6,-0.001059966,2.499941,-0.00264985,0.00122184,0.001205714,0.004002277,0.003508506,4149.29,4094.917,0,98.6802,,
	07/31/2022 11:06:53.594,1024365.361,4052.327,56,6,-0.001059919,2.499979,-0.00264978,0.001208973,0.001192987,0.003960456,0.003471839,4105.713,4051.76,0,98.6777,,
	07/31/2022 13:21:27.234,1.03244e+06,4008.61,57,6,-0.001060082,2.5,-0.002650205,0.001196824,0.001180187,0.003920808,0.003434853,4064.419,4008.11,0,98.60987,,
	07/31/2022 15:34:42.330,1.04043e+06,3972.57,58,6,-0.001060072,2.499981,-0.00265016,0.001184306,0.001169582,0.00388014,0.003404502,4021.953,3972.022,0,98.75676,,
	07/31/2022 17:46:49.040,1.04836e+06,3940.23,59,6,-0.001060008,2.499973,-0.00264999,0.001173692,0.001160113,0.003845705,0.003376929,3985.873,3939.72,0,98.84308,,
	07/31/2022 19:57:58.862,1.05623e+06,3909.351,60,6,-0.001060029,2.499994,-0.00265007,0.001166025,0.001150983,0.003820244,0.003351553,3959.886,3908.827,0,98.70995,,
	07/31/2022 22:08:02.300,1064034.067,3876.72,61,6,-0.001059967,2.499949,-0.00264986,0.001156099,0.001141347,0.003787409,0.003324174,3926.171,3876.196,0,98.72398,,
	08/01/2022 00:16:35.761,1.07175e+06,3830.91,62,6,-0.001060061,2.499929,-0.00265008,0.001143089,0.001127827,0.00374542,0.003283899,3881.995,3830.367,0,98.66486,,
	08/01/2022 02:23:41.671,1079373.438,3788.68,63,6,-0.00106007,2.499985,-0.00265016,0.001129762,0.00111541,0.003702546,0.003247496,3836.635,3788.186,0,98.72964,,
	08/01/2022 04:29:34.509,1.08693e+06,3752.94,64,6,-0.001059957,2.499989,-0.00264988,0.001118749,0.001104878,0.003666645,0.003216906,3799.3,3752.441,0,98.76014,,
	08/01/2022 06:34:23.283,1.09442e+06,3724.35,65,6,-0.001060015,2.499973,-0.00265001,0.001108308,0.001096467,0.003632627,0.003192446,3763.887,3723.831,0,98.93169,,
	08/01/2022 08:38:03.546,1.10184e+06,3684.63,66,6,-0.001060005,2.499996,-0.00265001,0.001099867,0.001084791,0.003604958,0.00315898,3735.07,3684.118,0,98.62926,,
	08/01/2022 10:40:34.716,1.10919e+06,3653.98,67,6,-0.001060035,2.499994,-0.00265008,0.001088541,0.001075788,0.003568127,0.003132697,3696.641,3653.477,0,98.82844,,
	08/01/2022 12:42:07.705,1.11648e+06,3624.64,68,6,-0.001060001,2.499954,-0.00264995,0.001080025,0.001067179,0.003540402,0.003108537,3667.81,3624.175,0,98.81058,,
	08/01/2022 14:42:49.437,1.12372e+06,3601.32,69,6,-0.001060066,2.499966,-0.00265013,0.001071765,0.001060331,0.003513134,0.003089074,3639.883,3600.893,0,98.93324,,
	08/01/2022 16:43:08.618,1.13094e+06,3589.16,70,6,-0.001060133,2.49996,-0.00265029,0.001068702,0.001056703,0.003502248,0.003080238,3629.518,3588.66,0,98.87729,,
	08/01/2022 18:42:28.312,1.1381e+06,3555.53,71,6,-0.001060116,2.499994,-0.00265028,0.001061057,0.00104681,0.003476968,0.00305171,3603.592,3555.053,0,98.65732,,
	08/01/2022 20:40:54.265,1145206.032,3534.41,72,6,-0.001060088,2.499929,-0.00265014,0.001051475,0.001040611,0.003445728,0.003034197,3571.014,3533.945,0,98.96682,,
	08/01/2022 22:38:44.174,1152275.941,3516.39,73,6,-0.001060091,2.499996,-0.00265022,0.001046162,0.001035301,0.003427934,0.003019494,3553.008,3515.901,0,98.96184,,
	08/02/2022 00:35:52.427,1.1593e+06,3493.92,74,6,-0.001060061,2.499973,-0.00265012,0.001040501,0.001028704,0.003409013,0.00300082,3533.784,3493.461,0,98.86622,,
	08/02/2022 02:32:06.366,1.16628e+06,3465.5,75,6,-0.001060052,2.499901,-0.00265003,0.001032883,0.001020318,0.003384034,0.002976551,3507.9,3465.051,0,98.78353,,
	08/02/2022 04:27:21.429,1.17319e+06,3436.77,76,6,-0.001060113,2.499996,-0.00265028,0.001024006,0.001011882,0.003354933,0.002952165,3477.783,3436.344,0,98.81606,,
	08/02/2022 06:21:46.950,1.18006e+06,3414.2,77,6,-0.00106007,2.499969,-0.00265014,0.001016077,0.001005222,0.003328975,0.00293298,3450.769,3413.748,0,98.93165,,
	08/02/2022 08:15:21.992,1.18687e+06,3388.35,78,6,-0.001060026,2.499979,-0.00265004,0.001008808,0.0009975863,0.003305196,0.002910445,3426.156,3387.924,0,98.88758,,
	08/02/2022 10:07:09.328,1.19358e+06,3328.92,79,6,-0.001060026,2.499975,-0.00265004,0.0009946782,0.0009800789,0.003259777,0.002856869,3377.933,3328.511,0,98.53226,,
	08/02/2022 11:57:09.667,1.20018e+06,3282.66,80,6,-0.001060006,2.499958,-0.00264997,0.0009768283,0.0009664177,0.003203228,0.002815254,3317.164,3282.177,0,98.93424,,
	08/02/2022 13:46:04.530,1.20672e+06,3249.34,81,6,-0.001060013,2.499975,-0.00265001,0.0009673347,0.0009566029,0.003172831,0.002786198,3285.045,3248.902,0,98.89058,,
	08/02/2022 15:34:05.309,1.2132e+06,3223.25,82,6,-0.001059964,2.499979,-0.00264989,0.0009590203,0.0009489248,0.003145699,0.002763743,3257.04,3222.817,0,98.94731,,
	08/02/2022 17:21:17.179,1.21963e+06,3200.46,83,6,-0.001059994,2.499949,-0.00264993,0.0009514127,0.0009422107,0.003121069,0.002744225,3230.91,3199.996,0,99.03281,,
	08/02/2022 19:07:44.000,1.22602e+06,3174.88,84,6,-0.001060045,2.499992,-0.0026501,0.0009456163,0.0009347165,0.003102045,0.002722754,3211.463,3174.469,0,98.84733,,
	08/02/2022 20:53:26.618,1.23236e+06,3155.68,85,6,-0.001060011,2.499973,-0.00265,0.0009383263,0.0009290632,0.003077828,0.002706629,3186.458,3155.219,0,99.0128,,
	08/02/2022 22:38:34.183,1.23867e+06,3137.79,86,6,-0.00106007,2.499939,-0.00265011,0.0009332461,0.0009238054,0.003061154,0.002691763,3169.272,3137.382,0,98.9884,,
	08/03/2022 00:22:49.555,1244921.322,3108.75,87,6,-0.001059985,2.499987,-0.00264995,0.0009264505,0.0009152283,0.003038864,0.00266662,3146.14,3108.302,0,98.78869,,
	08/03/2022 02:06:01.325,1.25111e+06,3080.388,88,6,-0.001060031,2.499941,-0.00265001,0.000916078,0.0009068624,0.003005277,0.002641704,3110.917,3079.973,0,98.99401,,
	08/03/2022 03:48:31.076,1.25726e+06,3060.29,89,6,-0.00105995,2.499945,-0.00264982,0.0009096152,0.0009009424,0.002984481,0.002624095,3088.974,3059.876,0,99.04654,,
	08/03/2022 05:30:15.573,1.26337e+06,3036.614,90,6,-0.001059946,2.499977,-0.00264984,0.0009032431,0.0008939575,0.002963759,0.002603776,3067.403,3036.22,0,98.97197,,
	08/03/2022 07:11:13.128,1.26942e+06,3014.36,91,6,-0.001059978,2.499956,-0.0026499,0.0008959963,0.0008874044,0.002940077,0.002584636,3042.739,3013.984,0,99.04108,,
	08/03/2022 08:51:38.134,1275449.901,3000.1,92,6,-0.001060006,2.5,-0.002650015,0.0008905484,0.0008832273,0.00292214,0.002572526,3024.421,2999.715,0,99.17791,,
	08/03/2022 10:31:24.962,1.28144e+06,2976.67,93,6,-0.001059996,2.499962,-0.00264995,0.0008862821,0.000876338,0.002908417,0.002552697,3009.711,2976.274,0,98.878,,
	08/03/2022 12:10:39.582,1.28739e+06,2964.364,94,6,-0.001060065,2.499983,-0.00265014,0.0008803749,0.0008727312,0.002888929,0.002542754,2989.79,2963.953,0,99.13177,,
	08/03/2022 13:49:38.628,1293330.395,2956.48,95,6,-0.001059966,2.499907,-0.00264982,0.0008780892,0.0008704255,0.002880793,0.002536886,2982.103,2956.073,0,99.12723,,
	08/03/2022 15:27:59.459,1.29923e+06,2932.459,96,6,-0.001060049,2.499971,-0.00265009,0.0008739155,0.0008633485,0.002866999,0.002516479,2967.935,2932.086,0,98.79084,,
	08/03/2022 17:05:17.527,1.30507e+06,2903.11,97,6,-0.001059962,2.499992,-0.0026499,0.0008641106,0.000854674,0.00283519,0.002490147,2934.522,2902.713,0,98.90794,,
	08/03/2022 18:41:44.203,1.31086e+06,2881.05,98,6,-0.001059953,2.499981,-0.00264986,0.0008554785,0.0008481656,0.002807394,0.00247053,2905.178,2880.569,0,99.14516,,
	08/03/2022 20:17:36.447,1.31661e+06,2861.96,99,6,-0.00105993,2.5,-0.002649825,0.0008509355,0.0008425288,0.002792694,0.002454227,2889.719,2861.403,0,99.01206,,
	08/03/2022 21:52:50.037,1.32232e+06,2844.81,100,6,-0.00106001,2.5,-0.002650025,0.0008446156,0.000837487,0.002772086,0.002439528,2868.318,2844.266,0,99.156,,
	08/03/2022 23:27:51.390,1.32802e+06,2839.62,101,6,-0.001060019,2.499981,-0.00265003,0.0008425254,0.0008360131,0.002764986,0.002436172,2861.169,2839.147,0,99.22704,,
	08/04/2022 01:02:43.015,1.33371e+06,2832.68,102,6,-0.001060026,2.499968,-0.00265003,0.0008416699,0.0008339665,0.002761572,0.00243104,2858.276,2832.142,0,99.08475,,
	08/04/2022 02:37:05.158,1339376.925,2816.89,103,6,-0.001059996,2.499983,-0.00264997,0.0008376361,0.0008292881,0.002747941,0.002417515,2844.687,2816.451,0,99.00338,,
	08/04/2022 04:10:25.113,1.34498e+06,2784.89,104,6,-0.001060052,2.499992,-0.00265012,0.0008287853,0.0008198376,0.002719624,0.002388787,2814.587,2784.354,0,98.92039,,
	08/04/2022 05:42:53.619,1.35053e+06,2760.91,105,6,-0.001059978,2.499872,-0.00264981,0.0008206814,0.0008128071,0.002693501,0.002367785,2787.027,2760.444,0,99.04051,,
	08/04/2022 07:14:41.465,1.35603e+06,2742.19,106,6,-0.001060021,2.499928,-0.00264998,0.0008142507,0.0008072818,0.002672765,0.002351243,2765.113,2741.723,0,99.14413,,
	08/04/2022 08:45:52.971,1.3615e+06,2723.37,107,6,-0.001060024,2.499992,-0.00265005,0.000809092,0.0008017517,0.002655937,0.002334905,2747.638,2722.922,0,99.09279,,
	08/04/2022 10:16:33.484,1.36695e+06,2708.12,108,6,-0.001060041,2.499998,-0.0026501,0.0008044355,0.0007972399,0.002640807,0.002322103,2731.811,2707.552,0,99.10551,,
	08/04/2022 11:46:56.124,1.37237e+06,2699.42,109,6,-0.001060016,2.49995,-0.00264999,0.0008017971,0.000794737,0.002631806,0.002315654,2722.809,2699.021,0,99.11947,,
	08/04/2022 13:16:59.693,1.37777e+06,2691.09,110,6,-0.001060011,2.499977,-0.00265,0.0007985879,0.0007922464,0.002620958,0.002308565,2711.921,2690.587,0,99.20592,,
	08/04/2022 14:46:33.897,1.38315e+06,2675.29,111,6,-0.001060022,2.499977,-0.00265003,0.0007945892,0.0007875561,0.002607952,0.002294576,2698.428,2674.72,0,99.11487,,
	08/04/2022 16:15:31.529,1.38848e+06,2656.18,112,6,-0.00106004,2.499987,-0.00265009,0.0007894192,0.0007819551,0.002591104,0.00227828,2680.898,2655.682,0,99.05447,,
	08/04/2022 17:44:09.712,1.3938e+06,2648.54,113,6,-0.001060006,2.499947,-0.00264996,0.0007859592,0.0007797497,0.002579537,0.002272167,2669.157,2648.127,0,99.20994,,
	08/04/2022 19:12:14.613,1.39909e+06,2628.98,114,6,-0.001059938,2.499929,-0.00264977,0.0007819335,0.0007739764,0.002566431,0.002255371,2655.434,2628.549,0,98.98239,,
	08/04/2022 20:39:42.039,1.40433e+06,2611.537,115,6,-0.001059934,2.499958,-0.00264979,0.000776047,0.0007688407,0.002547233,0.002240179,2635.383,2611.079,0,99.0714,,
	08/04/2022 22:06:32.391,1.40954e+06,2593.46,116,6,-0.00106005,2.499989,-0.00265011,0.0007704519,0.0007635225,0.002528947,0.002224349,2616.396,2593.018,0,99.1006,,
	08/04/2022 23:32:44.063,1.41472e+06,2574.09,117,6,-0.001060072,2.499998,-0.00265018,0.000764766,0.0007578043,0.002510617,0.002207259,2597.084,2573.627,0,99.08969,,
	08/05/2022 00:58:20.104,1.41985e+06,2558.22,118,6,-0.001059989,2.499956,-0.00264993,0.0007589302,0.0007531442,0.002491719,0.002193165,2577.297,2557.846,0,99.2376,,
	08/05/2022 02:23:19.869,1424951.636,2536.55,119,6,-0.00105995,2.499977,-0.00264985,0.0007546697,0.0007467491,0.002478022,0.002174489,2562.774,2536.176,0,98.95045,,
	08/05/2022 03:47:50.508,1.43002e+06,2525.46,120,6,-0.001059982,2.499964,-0.00264992,0.0007493382,0.0007435212,0.002460628,0.002164979,2544.786,2525.151,0,99.22372,,
	08/05/2022 05:11:56.687,1.43507e+06,2513.44,121,6,-0.001060054,2.499989,-0.00265012,0.0007456903,0.000739996,0.002448588,0.002154743,2532.338,2513.12,0,99.23637,,
	08/05/2022 06:35:36.957,1440088.724,2499.87,122,6,-0.00106007,2.499956,-0.00265013,0.0007420638,0.000735985,0.002436713,0.002143048,2520.012,2499.545,0,99.18082,,
	08/05/2022 07:58:51.384,1.44508e+06,2487.31,123,6,-0.001060058,2.499979,-0.00265012,0.0007381505,0.0007322943,0.002423999,0.002132114,2506.741,2487,0,99.20664,,
	08/05/2022 09:21:38.809,1.45005e+06,2473.13,124,6,-0.001059978,2.499908,-0.00264985,0.0007343889,0.0007281148,0.002411743,0.002119869,2493.945,2472.825,0,99.14567,,
	08/05/2022 10:44:01.635,1.45499e+06,2461.91,125,6,-0.001059985,2.499868,-0.00264982,0.000730413,0.0007248306,0.002398658,0.002110184,2480.543,2461.576,0,99.23573,,
	08/05/2022 12:06:07.337,1.45992e+06,2454.73,126,6,-0.001060041,2.499971,-0.00265007,0.0007274895,0.0007227505,0.002389111,0.002104526,2470.609,2454.448,0,99.34858,,
	08/05/2022 13:28:14.072,1.46485e+06,2454.69,127,6,-0.001060114,2.499992,-0.00265028,0.0007277892,0.0007227086,0.002389677,0.002105231,2471.678,2454.352,0,99.30191,,
	08/05/2022 14:50:08.622,1.46976e+06,2446.37,128,6,-0.001060093,2.499964,-0.00265019,0.0007266388,0.0007202636,0.002385636,0.002098441,2467.83,2446.072,0,99.12265,,
	08/05/2022 16:11:45.875,1.47466e+06,2438.96,129,6,-0.001060016,2.499964,-0.00265,0.0007237302,0.0007180818,0.002375912,0.002092469,2457.936,2438.659,0,99.21954,,
	08/05/2022 17:33:10.993,1.47954e+06,2433.76,130,6,-0.001060055,2.499821,-0.00264995,0.0007216986,0.0007165614,0.002369102,0.002088219,2450.986,2433.443,0,99.28818,,
	08/05/2022 18:54:17.694,1.48441e+06,2422.94,131,6,-0.001060043,2.499996,-0.0026501,0.000719462,0.0007133794,0.002361638,0.002078915,2443.363,2422.631,0,99.15456,,
	08/05/2022 20:14:56.988,1.48925e+06,2409.444,132,6,-0.001060043,2.499943,-0.00265005,0.0007153745,0.0007093915,0.002348216,0.002067026,2429.498,2409.141,0,99.16367,,
	08/05/2022 21:35:08.762,1.49406e+06,2396.53,133,6,-0.001060015,2.499907,-0.00264994,0.0007110501,0.0007055737,0.002334104,0.002055836,2414.879,2396.246,0,99.22982,,
	08/05/2022 22:54:50.886,1498842.653,2379.94,134,6,-0.001060026,2.499975,-0.00265004,0.0007072104,0.0007006877,0.002321659,0.002041357,2401.83,2379.627,0,99.07767,,
	08/06/2022 00:13:58.434,1.50359e+06,2363.82,135,6,-0.001060107,2.49995,-0.00265021,0.0007017898,0.0006959751,0.00230403,0.00202717,2383.356,2363.508,0,99.17145,,
	08/06/2022 01:32:30.852,1.5083e+06,2344.65,136,6,-0.001060024,2.499928,-0.00264998,0.0006970972,0.0006903186,0.002288861,0.002010462,2367.412,2344.354,0,99.0276,,
	08/06/2022 02:50:30.261,1.51298e+06,2330.53,137,6,-0.001060055,2.499998,-0.00265014,0.000691536,0.0006861538,0.002270861,0.00199802,2348.526,2330.248,0,99.22171,,
	08/06/2022 04:07:59.741,1.51763e+06,2314.62,138,6,-0.00106001,2.49996,-0.00264998,0.0006874102,0.0006814746,0.002257535,0.001984091,2334.499,2314.34,0,99.13652,,
	08/06/2022 05:25:01.586,1.52225e+06,2303.09,139,6,-0.001059977,2.499958,-0.0026499,0.0006827027,0.0006780777,0.002242235,0.001973863,2318.419,2302.79,0,99.32255,,
	08/06/2022 06:41:38.437,1526850.204,2288.73,140,6,-0.001060001,2.499985,-0.00264999,0.0006795656,0.0006738463,0.002232026,0.001961462,2307.747,2288.444,0,99.15839,,
	08/06/2022 07:57:49.612,1.53142e+06,2276.941,141,6,-0.001060082,2.5,-0.002650205,0.0006754571,0.0006703525,0.002218657,0.001951017,2293.884,2276.645,0,99.24429,,
	08/06/2022 09:13:31.295,1.53596e+06,2262.08,142,6,-0.001060015,2.5,-0.00265004,0.000671135,0.000665982,0.00220471,0.001938025,2279.257,2261.803,0,99.23219,,
	08/06/2022 10:28:47.420,1540479.187,2248.84,143,6,-0.00106001,2.499987,-0.00265001,0.0006675325,0.0006620922,0.002193026,0.001926507,2266.941,2248.547,0,99.18502,,
	08/06/2022 11:43:43.322,1.54498e+06,2240.78,144,6,-0.001060089,2.499987,-0.00265021,0.0006639565,0.0006597523,0.00218129,0.001919625,2254.782,2240.521,0,99.3668,,
	08/06/2022 12:58:33.565,1.54947e+06,2238.39,145,6,-0.001060075,2.499996,-0.00265018,0.0006629827,0.0006590149,0.002177957,0.001917961,2251.514,2238.086,0,99.40152,,
	08/06/2022 14:13:17.747,1.55395e+06,2232.89,146,6,-0.001060121,2.499844,-0.00265014,0.0006627808,0.0006574299,0.002177071,0.001913902,2250.942,2232.621,0,99.19264,,
	08/06/2022 15:27:57.690,1.55843e+06,2233.78,147,6,-0.001060005,2.49999,-0.00265,0.0006612788,0.0006577114,0.00217183,0.001915189,2245.827,2233.496,0,99.46052,,
	08/06/2022 16:42:37.371,1.56291e+06,2231.95,148,6,-0.001060096,2.499887,-0.00265012,0.0006617501,0.0006571534,0.002173158,0.00191402,2247.39,2231.667,0,99.30537,,
	08/06/2022 17:57:02.890,1.56737e+06,2224.89,149,6,-0.001060084,2.499891,-0.00265009,0.0006596358,0.0006550702,0.002166084,0.001907887,2240.284,2224.625,0,99.30786,,
	08/06/2022 19:11:13.305,1.57183e+06,2216.53,150,6,-0.001060029,2.499968,-0.00265004,0.00065764,0.0006526186,0.002159499,0.001900877,2233.55,2216.271,0,99.23646,,
	08/06/2022 20:25:03.122,1.57625e+06,2207.01,151,6,-0.00106008,2.499975,-0.00265017,0.0006544012,0.0006498148,0.002148896,0.00189237,2222.454,2206.743,0,99.29915,,
	08/06/2022 21:38:25.617,1.58066e+06,2190.89,152,6,-0.001060127,2.499969,-0.00265028,0.0006511162,0.0006450358,0.002138251,0.001878124,2211.288,2190.611,0,99.06615,,
	08/06/2022 22:51:15.018,1585026.785,2175.32,153,6,-0.001060022,2.499905,-0.00264995,0.0006459198,0.0006404412,0.002121361,0.001864485,2193.732,2175.052,0,99.15182,,
	08/07/2022 00:03:36.299,1.58937e+06,2162.79,154,6,-0.001059982,2.499979,-0.00264993,0.0006413522,0.0006367763,0.002106605,0.001853368,2178.167,2162.518,0,99.28652,,
	08/07/2022 01:15:28.872,1.59368e+06,2146.57,155,6,-0.001060075,2.5,-0.00265019,0.0006376979,0.0006319913,0.002094748,0.001839155,2165.672,2146.31,0,99.10513,,
	08/07/2022 02:26:55.626,1.59797e+06,2136.38,156,6,-0.001060029,2.499996,-0.00265007,0.0006330786,0.0006289734,0.00207979,0.001830102,2150.042,2136.126,0,99.35155,,
	08/07/2022 03:38:01.344,1.60223e+06,2125.12,157,6,-0.001060066,2.499977,-0.00265014,0.0006302039,0.0006256707,0.002070434,0.001820302,2140.278,2124.861,0,99.28066,,
	08/07/2022 04:48:44.820,1.60648e+06,2113.61,158,6,-0.001060096,2.499941,-0.00265018,0.00062707,0.0006222898,0.002060271,0.001810291,2129.553,2113.32,0,99.23769,,
	08/07/2022 05:59:05.647,1.6107e+06,2102.64,159,6,-0.001060072,2.499998,-0.00265018,0.0006236294,0.0006190538,0.00204901,0.001800809,2117.879,2102.383,0,99.2663,,
	08/07/2022 07:09:09.734,1.6149e+06,2095.44,160,6,-0.00106004,2.499969,-0.00265007,0.0006208019,0.0006169289,0.002039837,0.001794335,2108.319,2095.185,0,99.37612,,
	08/07/2022 08:18:54.019,1619085.786,2084.2,161,6,-0.001060107,2.499895,-0.00265016,0.0006183182,0.0006136417,0.002031759,0.001784723,2099.788,2083.946,0,99.24368,,
	08/07/2022 09:28:16.629,1.62325e+06,2073.65,162,6,-0.001060084,2.499973,-0.00265018,0.0006150408,0.0006105177,0.00202121,0.001775544,2088.626,2073.397,0,99.26458,,
	08/07/2022 10:37:16.593,1.62739e+06,2062.42,163,6,-0.001059974,2.499994,-0.00264993,0.0006116687,0.0006071968,0.002010155,0.001765737,2077.243,2062.159,0,99.26889,,
	08/07/2022 11:46:03.265,1.63152e+06,2057.61,164,6,-0.001059941,2.499933,-0.00264978,0.0006091713,0.0006058084,0.002002023,0.001761692,2068.742,2057.352,0,99.44795,,
	08/07/2022 12:54:43.961,1.63564e+06,2054.24,165,6,-0.001059967,2.499977,-0.00264989,0.0006084248,0.0006048064,0.001999495,0.001759076,2066.147,2053.988,0,99.40528,,
	08/07/2022 14:03:23.809,1.63976e+06,2053.93,166,6,-0.001059967,2.499996,-0.00264991,0.0006082297,0.000604707,0.001998634,0.001759207,2065.602,2053.679,0,99.42084,,
	08/07/2022 15:11:58.269,1.64387e+06,2049.83,167,6,-0.001059996,2.499992,-0.00264998,0.0006078437,0.000603524,0.001997095,0.001756024,2064.312,2049.567,0,99.28935,,
	08/07/2022 16:20:24.478,1.64798e+06,2046.49,168,6,-0.001060108,2.499998,-0.00265027,0.0006063996,0.0006025418,0.001992204,0.001753261,2059.391,2046.237,0,99.36382,,
	08/07/2022 17:28:39.247,1.65207e+06,2040.11,169,6,-0.001060003,2.499949,-0.00264995,0.0006048929,0.0006006417,0.001987213,0.001747759,2054.344,2039.847,0,99.29719,,
	08/07/2022 18:36:33.720,1.65615e+06,2028.82,170,6,-0.001059953,2.499975,-0.00264986,0.0006022399,0.0005973356,0.001978528,0.001737918,2045.349,2028.591,0,99.18565,,
	08/07/2022 19:44:04.045,1.6602e+06,2017.26,171,6,-0.001060017,2.499964,-0.00265,0.0005985728,0.0005939282,0.001966586,0.001727844,2032.766,2017.007,0,99.22404,,
	08/07/2022 20:51:18.078,1.66423e+06,2010.99,172,6,-0.001059962,2.499853,-0.00264975,0.0005956143,0.0005920529,0.001956939,0.001722351,2022.752,2010.739,0,99.40206,,
	08/07/2022 21:58:16.958,1.66825e+06,2002.372,173,6,-0.00105998,2.499935,-0.00264988,0.0005936833,0.0005895366,0.00195063,0.001714916,2016.199,2002.119,0,99.30153,,
	08/07/2022 23:04:57.490,1.67225e+06,1994,174,6,-0.001060031,2.499979,-0.00265006,0.0005907724,0.0005870655,0.001941163,0.001707418,2006.207,1993.751,0,99.37254,,
	08/08/2022 00:11:19.851,1.67623e+06,1984.27,175,6,-0.001059983,2.499956,-0.00264991,0.0005882682,0.0005841823,0.001933072,0.001698875,1997.774,1984.007,0,99.30544,,
	08/08/2022 01:17:18.642,1.68019e+06,1971.316,176,6,-0.001059953,2.499968,-0.00264985,0.000585147,0.0005803733,0.001922902,0.001687646,1987.172,1971.063,0,99.18419,,
	08/08/2022 02:22:56.811,1684128.578,1963.34,177,6,-0.00105998,2.499992,-0.00264994,0.0005814387,0.0005780255,0.001910841,0.001680559,1974.502,1963.062,0,99.41298,,
	08/08/2022 03:28:16.328,1.68805e+06,1952.32,178,6,-0.001059982,2.499983,-0.00264994,0.0005791471,0.0005747174,0.001903442,0.001670665,1966.746,1951.917,0,99.23513,,
	08/08/2022 04:33:15.653,1691947.42,1942.23,179,6,-0.001059957,2.499958,-0.00264985,0.0005761813,0.0005717765,0.001893822,0.001662128,1956.656,1941.879,0,99.23551,,
	08/08/2022 05:37:56.500,1.69583e+06,1934.75,180,6,-0.001059988,2.499996,-0.00264997,0.0005729413,0.0005695726,0.001883282,0.001655374,1945.699,1934.411,0,99.41203,,
	08/08/2022 06:42:22.601,1.69969e+06,1926.76,181,6,-0.001059966,2.499983,-0.0026499,0.0005709827,0.0005671905,0.001876921,0.001648409,1938.956,1926.416,0,99.33585,,
	08/08/2022 07:46:42.519,1.70355e+06,1926.03,182,6,-0.001059934,2.499992,-0.00264983,0.000569329,0.0005669989,0.001871612,0.001647888,1933.454,1925.661,0,99.59074,,
	08/08/2022 08:50:48.003,1.7074e+06,1914.92,183,6,-0.001060013,2.499981,-0.00265001,0.0005683351,0.0005637202,0.001868222,0.001638191,1930.093,1914.529,0,99.18799,,
	08/08/2022 09:54:33.748,1.71123e+06,1906.73,184,6,-0.00105995,2.499929,-0.0026498,0.0005649718,0.0005613133,0.001857215,0.001631066,1918.573,1906.367,0,99.35245,,
	08/08/2022 10:58:10.832,1715042.599,1903.292,185,6,-0.001059952,2.499866,-0.00264974,0.0005634266,0.0005603213,0.001852209,0.001628339,1913.374,1902.916,0,99.44885,,
	08/08/2022 12:01:46.421,1.71886e+06,1901.59,186,6,-0.001059997,2.499983,-0.00264997,0.0005635157,0.0005598024,0.001852362,0.001627311,1913.653,1901.202,0,99.34105,,
	08/08/2022 13:05:23.288,1722675.055,1903.9,187,6,-0.001059988,2.499966,-0.00264993,0.0005631538,0.0005604979,0.001850897,0.00162982,1912.493,1903.551,0,99.52839,,
	08/08/2022 14:08:59.645,1.72649e+06,1901.38,188,6,-0.001060049,2.49999,-0.00265011,0.0005637754,0.0005597813,0.001852812,0.001627929,1914.608,1901.029,0,99.29153,,
	08/08/2022 15:12:23.493,1.7303e+06,1896.31,189,6,-0.001059994,2.499969,-0.00264995,0.0005616039,0.0005582615,0.001845561,0.001623279,1907.144,1895.961,0,99.40485,,
	08/08/2022 16:15:32.008,1.73408e+06,1888.4,190,6,-0.001059936,2.499983,-0.00264982,0.0005593931,0.0005559317,0.001838412,0.001616395,1899.699,1888.033,0,99.38123,,
	08/08/2022 17:18:31.707,1.73786e+06,1883.872,191,6,-0.001060006,2.499956,-0.00264997,0.0005581438,0.000554635,0.001834261,0.001612769,1895.389,1883.559,0,99.37133,,
	08/08/2022 18:21:26.286,1.74164e+06,1881.964,192,6,-0.001059985,2.499899,-0.00264986,0.0005572021,0.0005540327,0.001831135,0.001610999,1892.236,1881.622,0,99.43119,,
	08/08/2022 19:24:11.678,1.7454e+06,1876.33,193,6,-0.001060008,2.49996,-0.00264998,0.0005561527,0.0005523959,0.001827583,0.001606343,1888.681,1876.017,0,99.32449,,
	08/08/2022 20:26:42.133,1.74915e+06,1868.54,194,6,-0.00106004,2.499998,-0.0026501,0.0005540567,0.0005501212,0.001820793,0.001599679,1881.538,1868.279,0,99.28969,,
	08/08/2022 21:28:53.427,1.75289e+06,1857.25,195,6,-0.001060038,2.499996,-0.00265009,0.0005517072,0.0005467583,0.001813069,0.001589901,1873.624,1856.879,0,99.10299,,
	08/08/2022 22:30:45.398,1.7566e+06,1850.75,196,6,-0.001060054,2.5,-0.002650135,0.0005479475,0.0005448337,0.001800784,0.001583949,1860.809,1850.346,0,99.43172,,
	08/08/2022 23:32:18.723,1760290.49,1839.11,197,6,-0.001060089,2.499975,-0.0026502,0.0005458946,0.0005413954,0.001794148,0.001573711,1853.815,1838.755,0,99.17582,,
	08/09/2022 00:33:34.863,1.76397e+06,1833.66,198,6,-0.001059987,2.499943,-0.00264991,0.0005424226,0.0005398193,0.001782842,0.001568887,1842.057,1833.374,0,99.52005,,
	08/09/2022 01:34:35.465,1.76763e+06,1824.02,199,6,-0.001060035,2.499992,-0.00265008,0.0005407066,0.0005369671,0.001777309,0.001560414,1836.181,1823.638,0,99.30841,,
	08/09/2022 02:35:19.247,1.77127e+06,1816.26,200,6,-0.001059972,2.5,-0.00264993,0.0005380292,0.0005346704,0.001768588,0.001553613,1827.138,1815.921,0,99.37572,,