File: Cell-test-data/SiMP-LFP-PFF10/JB6_SiMP-LFP-PFF10_03C_Channel_90_StatisticByCycle.CSV
Date_Time                    ,Test Time (s),Step Time (s),Cycle Index,Step Index,Current (A),Voltage (V),Power (W),Charge Capacity (Ah),Discharge Capacity (Ah),Charge Energy (Wh),Discharge Energy (Wh),Charge Time (s),Discharge Time (s),V_Max_On_Cycle (V),Coulombic Efficiency (%),mAh/g
	07/21/2022 14:52:25.310,173799,58330.5,1,3,-0.0001589939,2.499988,-0.000397483,0.003191481,0.002575822,0.01056915,0.007649166,72255.23,58320.84,0,80.7093,,
	07/22/2022 22:40:21.665,288276,55521.4,2,3,-0.0001589939,2.499999,-0.000397485,0.002603607,0.002451742,0.008408431,0.007252629,58946.74,55513.26,0,94.16713,,
	07/24/2022 05:07:15.640,397889.711,53691.4,3,3,-0.0001590011,2.499988,-0.000397501,0.00246969,0.002370989,0.007949184,0.006990997,55914.04,53683.17,0,96.00352,,
	07/24/2022 09:08:25.059,412359,6986.545,4,6,-0.001059825,2.499999,-0.00264956,0.002203158,0.002056615,0.007201005,0.005953754,7481.593,6985.472,0,93.34853,,
	07/24/2022 12:57:29.668,426104,6796.92,5,6,-0.001059885,2.499986,-0.0026497,0.002045604,0.002000783,0.00666891,0.005785109,6946.568,6795.877,0,97.8089,,
	07/24/2022 16:42:38.454,439613,6685.07,6,6,-0.001059827,2.499999,-0.00264957,0.002009092,0.001968036,0.006548856,0.005688467,6822.623,6684.077,0,97.95648,,
	07/24/2022 20:24:41.533,452936,6589.78,7,6,-0.001059873,2.499978,-0.00264966,0.001982454,0.001939824,0.006459756,0.005606479,6732.228,6588.831,0,97.84966,,
	07/25/2022 00:02:49.668,466024,6473.78,8,6,-0.001059856,2.499991,-0.00264963,0.001947454,0.001905654,0.00634713,0.005505942,6613.271,6472.788,0,97.85358,,
	07/25/2022 03:37:40.671,478915,6379.32,9,6,-0.00105991,2.499995,-0.00264977,0.001917215,0.001877908,0.006248438,0.005425892,6510.611,6378.366,0,97.94978,,
	07/25/2022 07:09:24.092,491618,6286.33,10,6,-0.001059885,2.499993,-0.00264971,0.001889371,0.001850537,0.00615757,0.005346966,6416.102,6285.354,0,97.94459,,
	07/25/2022 10:38:05.603,504139.674,6196.05,11,6,-0.001059894,2.499995,-0.00264973,0.00186241,0.001823979,0.006069968,0.005270974,6324.479,6195.151,0,97.9365,,
	07/25/2022 14:03:41.359,516475,6103.248,12,6,-0.001059871,2.499995,-0.00264967,0.00183503,0.001796643,0.00598117,0.005192219,6231.481,6102.351,0,97.90811,,
	07/25/2022 17:26:13.930,528628,6017.2,13,6,-0.001059917,2.499999,-0.00264979,0.001806425,0.001771271,0.005888653,0.005119642,6134.384,6016.281,0,98.05393,,
	07/25/2022 20:45:50.477,540605,5924.38,14,6,-0.001059906,2.499986,-0.00264975,0.001781903,0.001743979,0.005808407,0.005041273,6051.166,5923.476,0,97.87173,,
	07/26/2022 00:02:11.047,552385,5832.29,15,6,-0.001059923,2.499991,-0.0026498,0.001751321,0.001716901,0.005710497,0.004962609,5947.347,5831.411,0,98.03463,,
	07/26/2022 03:15:54.801,564009,5755.16,16,6,-0.001059892,2.499999,-0.00264973,0.001727874,0.00169419,0.005634484,0.004898203,5867.687,5754.319,0,98.05054,,
	07/26/2022 06:26:54.596,575469,5671.64,17,6,-0.001059928,2.499986,-0.00264981,0.001704192,0.001669629,0.005557583,0.004828202,5787.26,5670.815,0,97.9719,,
	07/26/2022 09:35:21.088,586775,5598.73,18,6,-0.001059924,2.499997,-0.00264981,0.001680496,0.001648165,0.005480621,0.004767494,5706.85,5597.866,0,98.0761,,
	07/26/2022 12:41:08.802,597923,5520.23,19,6,-0.00105984,2.49998,-0.00264958,0.001656872,0.001624977,0.00540403,0.004700078,5626.542,5519.396,0,98.07499,,
	07/26/2022 15:44:27.190,608921,5450.01,20,6,-0.001059873,2.499997,-0.00264968,0.001633597,0.001604338,0.005329476,0.004641362,5547.479,5449.219,0,98.20895,,
	07/26/2022 18:45:38.127,619792,5380.68,21,6,-0.001059906,2.499995,-0.00264976,0.001616491,0.001583938,0.005272884,0.004584507,5489.41,5379.858,0,97.98618,,
	07/26/2022 21:44:02.872,630496.943,5300.957,22,6,-0.001059942,2.499999,-0.00264985,0.001590977,0.001560485,0.005190792,0.004515541,5402.868,5300.153,0,98.08347,,
	07/27/2022 00:40:04.241,641058,5232.4,23,6,-0.001059937,2.499995,-0.00264984,0.001568959,0.001540335,0.005120309,0.004458031,5328.098,5231.629,0,98.17561,,
	07/27/2022 03:33:49.471,651484,5162.46,24,6,-0.001059912,2.499995,-0.00264977,0.001549455,0.001519716,0.005056737,0.004399686,5261.91,5161.672,0,98.08068,,
	07/27/2022 06:25:22.073,661776,5101.02,25,6,-0.001059949,2.499995,-0.00264987,0.001528549,0.001501675,0.004988566,0.004348034,5190.749,5100.279,0,98.24184,,
	07/27/2022 09:14:53.083,671947.154,5040.47,26,6,-0.001059984,2.49999,-0.00264995,0.001510543,0.001483833,0.004930189,0.004296921,5129.708,5039.688,0,98.23174,,
	07/27/2022 12:02:25.016,681999,4981.707,27,6,-0.001059945,2.499999,-0.00264986,0.001492788,0.001466527,0.004872648,0.004247426,5069.355,4980.925,0,98.24082,,
	07/27/2022 14:47:44.698,691919,4913.26,28,6,-0.001059862,2.499999,-0.00264965,0.001474016,0.001446295,0.004812434,0.004189119,5005.601,4912.512,0,98.11939,,
	07/27/2022 17:31:09.150,701723,4859.5,29,6,-0.001059845,2.499988,-0.0026496,0.001455897,0.001430542,0.004753313,0.004144898,4944.123,4858.754,0,98.25848,,
	07/27/2022 20:12:44.110,711418.181,4801.77,30,6,-0.001059905,2.499988,-0.00264975,0.001440641,0.001413488,0.004703154,0.004096542,4892.348,4801.054,0,98.11524,,
	07/27/2022 22:51:51.293,720965.364,4732.81,31,6,-0.001059903,2.499999,-0.00264976,0.00141744,0.001393222,0.004629112,0.004036433,4813.622,4732.096,0,98.2914,,
	07/28/2022 01:29:15.019,730409,4678.99,32,6,-0.001059917,2.499999,-0.00264979,0.001402831,0.001377381,0.004581387,0.003991846,4763.958,4678.279,0,98.18581,,
	07/28/2022 04:04:48.292,739742,4628.27,33,6,-0.001059934,2.499982,-0.00264982,0.001385252,0.001362529,0.00452431,0.003949146,4704.308,4627.653,0,98.35966,,
	07/28/2022 06:38:33.191,748967.262,4572.22,34,6,-0.001059979,2.499991,-0.00264994,0.001369839,0.001346027,0.004474223,0.003901737,4651.98,4571.61,0,98.26165,,
	07/28/2022 09:10:37.457,758092,4525.4,35,6,-0.001060002,2.499991,-0.00265,0.001354,0.001332212,0.004422913,0.003861762,4598.175,4524.755,0,98.39088,,
	07/28/2022 11:40:57.098,767111,4469.55,36,6,-0.001059942,2.499997,-0.00264985,0.001339654,0.001315775,0.004376397,0.003814823,4549.41,4468.924,0,98.21758,,
	07/28/2022 14:09:23.464,776018,4416.42,37,6,-0.001059867,2.499995,-0.00264966,0.001321942,0.001300095,0.004318963,0.003769128,4489.252,4415.835,0,98.34737,,
	07/28/2022 16:36:07.803,784822,4364.32,38,6,-0.001059834,2.499991,-0.00264958,0.001307258,0.001284721,0.004271917,0.003725254,4439.374,4363.72,0,98.27602,,
	07/28/2022 19:01:24.121,793538,4322.483,39,6,-0.001059919,2.499997,-0.00264979,0.001293648,0.001272412,0.004227233,0.003690422,4393.119,4321.896,0,98.35841,,
	07/28/2022 21:24:55.272,802149,4268.48,40,6,-0.00105991,2.499995,-0.00264977,0.001278568,0.001256566,0.004178244,0.003644085,4342.03,4267.889,0,98.27913,,
	07/28/2022 23:46:40.046,810654.117,4218.94,41,6,-0.001059943,2.49999,-0.00264985,0.001261841,0.001241992,0.004124433,0.003601612,4285.174,4218.393,0,98.42694,,
	07/29/2022 02:06:59.186,819073,4175.95,42,6,-0.001059937,2.499999,-0.00264984,0.001249253,0.001229343,0.004083447,0.003565334,4242.534,4175.379,0,98.40628,,
	07/29/2022 04:25:55.982,827410,4135.32,43,6,-0.001059942,2.49998,-0.00264983,0.00123697,0.001217392,0.004043524,0.003531042,4200.821,4134.78,0,98.41727,,
	07/29/2022 06:43:29.875,835664,4095.69,44,6,-0.001059958,2.499986,-0.00264988,0.001224218,0.001205752,0.004001905,0.003497587,4157.577,4095.147,0,98.49162,,
	07/29/2022 08:59:48.049,843842,4057,45,6,-0.001059956,2.499999,-0.00264989,0.001213319,0.001194351,0.003966484,0.003464936,4120.532,4056.411,0,98.43668,,
	07/29/2022 11:14:33.267,851927,4007.88,46,6,-0.001059947,2.499999,-0.00264987,0.001200443,0.001179893,0.003924539,0.00342326,4076.739,4007.313,0,98.28819,,
	07/29/2022 13:27:52.749,859927,3970.95,47,6,-0.001059903,2.499991,-0.00264975,0.001186082,0.001168944,0.00387793,0.003391294,4027.876,3970.392,0,98.55508,,
	07/29/2022 15:40:11.590,867865.661,3941.27,48,6,-0.00105985,2.499997,-0.00264962,0.001176953,0.00116021,0.003848412,0.003367379,3996.983,3940.67,0,98.5774,,
	07/29/2022 17:51:44.562,875759,3914.48,49,6,-0.001060168,2.499988,-0.00265041,0.001171341,0.001152311,0.003828865,0.003346171,3977.857,3913.943,0,98.37536,,
	07/29/2022 20:01:54.842,883569,3873.87,50,6,-0.0010599,2.499988,-0.00264974,0.001158957,0.001140352,0.003788152,0.003310914,3935.855,3873.331,0,98.39468,,
	07/29/2022 22:10:30.395,891284,3828.52,51,6,-0.001059945,2.49999,-0.00264985,0.00114441,0.001126998,0.003741461,0.003271322,3886.442,3827.944,0,98.47845,,
	07/30/2022 00:17:36.032,898910,3783.17,52,6,-0.001059909,2.499999,-0.00264977,0.001131276,0.001113686,0.00369924,0.003232044,3841.865,3782.651,0,98.44512,,
	07/30/2022 02:23:23.200,906457,3748.6,53,6,-0.001059903,2.499988,-0.00264974,0.001118375,0.001103512,0.003657648,0.003201872,3798.035,3748.099,0,98.67107,,
	07/30/2022 04:28:01.516,913936,3712.5,54,6,-0.001059926,2.499993,-0.00264981,0.001108739,0.001092875,0.00362648,0.003171016,3765.266,3711.994,0,98.56913,,
	07/30/2022 06:31:30.573,921345,3676.16,55,6,-0.001059882,2.49998,-0.00264968,0.001099051,0.001082199,0.003594887,0.003140372,3732.364,3675.684,0,98.46666,,
	07/30/2022 08:33:57.440,928692,3648.33,56,6,-0.001059926,2.499999,-0.00264981,0.001088925,0.001074007,0.003561903,0.003116805,3697.973,3647.819,0,98.63002,,
	07/30/2022 10:35:16.565,935971,3611.8,57,6,-0.001059987,2.499995,-0.00264996,0.001079757,0.001063274,0.003531622,0.003085973,3666.792,3611.305,0,98.47342,,
	07/30/2022 12:35:33.494,943188,3583.95,58,6,-0.001059935,2.499988,-0.00264982,0.001069615,0.00105507,0.003498675,0.003062041,3632.438,3583.475,0,98.64017,,
	07/30/2022 14:34:40.546,950335,3546.44,59,6,-0.001059905,2.499991,-0.00264975,0.001060072,0.001043976,0.003467825,0.003029912,3600.017,3545.972,0,98.48168,,
	07/30/2022 16:33:06.884,957440.955,3531.42,60,6,-0.00105984,2.499997,-0.0026496,0.001052507,0.001039634,0.003442813,0.003018632,3574.33,3530.932,0,98.77695,,
	07/30/2022 18:30:52.178,964506,3507.56,61,6,-0.001059867,2.499991,-0.00264966,0.00104744,0.001032506,0.00342558,0.002998356,3557.18,3507.054,0,98.5743,,
	07/30/2022 20:27:22.444,971497,3468.5,62,6,-0.001059914,2.499986,-0.00264977,0.001036872,0.001021034,0.003391234,0.002964317,3521.228,3468.007,0,98.47248,,
	07/30/2022 22:22:31.808,978406,3431.97,63,6,-0.001059933,2.499995,-0.00264983,0.001023804,0.001010314,0.003349454,0.00293223,3476.833,3431.522,0,98.68238,,
	07/31/2022 00:16:36.627,985251,3397.73,64,6,-0.001059898,2.499988,-0.00264973,0.001014878,0.001000236,0.00332063,0.002902806,3446.534,3397.297,0,98.55721,,
	07/31/2022 02:09:44.278,992038,3371.325,65,6,-0.001059892,2.499991,-0.00264972,0.001005831,0.0009924575,0.00329104,0.002880281,3415.782,3370.872,0,98.67039,,
	07/31/2022 04:02:04.862,998779,3348.88,66,6,-0.001059981,2.499978,-0.00264993,0.0009985634,0.0009858476,0.003267314,0.00286122,3391.174,3348.399,0,98.72659,,
	07/31/2022 05:53:32.994,1.00547e+06,3321.43,67,6,-0.001059942,2.499999,-0.00264985,0.0009911873,0.0009777943,0.003243094,0.002837866,3366.156,3320.974,0,98.6488,,
	07/31/2022 07:44:07.881,1.0121e+06,3295.66,68,6,-0.001059962,2.499997,-0.0026499,0.0009830953,0.0009701899,0.003216697,0.002815873,3338.695,3295.197,0,98.68728,,
	07/31/2022 09:33:57.639,1.01869e+06,3273.96,69,6,-0.001059958,2.499991,-0.00264989,0.000976227,0.0009638096,0.003194001,0.002797516,3315.25,3273.551,0,98.72802,,
	07/31/2022 11:22:59.369,1.02523e+06,3249.19,70,6,-0.001059937,2.499995,-0.00264984,0.0009693878,0.0009565073,0.00317189,0.002776446,3292.015,3248.733,0,98.67126,,
	07/31/2022 13:11:06.950,1031721.021,3222.62,71,6,-0.001059917,2.499984,-0.00264978,0.0009612615,0.000948655,0.003145479,0.002753237,3264.46,3222.174,0,98.68854,,
	07/31/2022 14:58:17.447,1.03815e+06,3195.16,72,6,-0.00105992,2.499997,-0.0026498,0.0009525442,0.0009405725,0.003117191,0.002729394,3234.858,3194.717,0,98.74319,,
	07/31/2022 16:44:37.782,1044531.853,3168.63,73,6,-0.001059884,2.499984,-0.00264969,0.0009455982,0.0009327753,0.003094576,0.002706933,3211.241,3168.199,0,98.64394,,
	07/31/2022 18:30:13.015,1.05087e+06,3148.914,74,6,-0.00105987,2.499988,-0.00264966,0.0009380975,0.0009269722,0.0030701,0.002690258,3185.812,3148.491,0,98.81405,,
	07/31/2022 20:15:15.493,1.05717e+06,3132.9,75,6,-0.001059873,2.49998,-0.00264966,0.000933193,0.0009222384,0.003053787,0.002676904,3169.088,3132.507,0,98.82612,,
	07/31/2022 21:59:43.533,1.06344e+06,3114.08,76,6,-0.001059905,2.499988,-0.00264975,0.0009285896,0.0009167095,0.003038386,0.002661154,3153.469,3113.662,0,98.72063,,
	07/31/2022 23:43:19.987,1.06965e+06,3087.22,77,6,-0.0010599,2.49998,-0.00264973,0.0009212935,0.0009087918,0.003014566,0.002637889,3128.756,3086.784,0,98.64304,,
	08/01/2022 01:26:03.295,1.07582e+06,3063.94,78,6,-0.001059928,2.499976,-0.00264979,0.0009125081,0.0009019523,0.002986165,0.002617408,3098.887,3063.542,0,98.84321,,
	08/01/2022 03:07:56.311,1.08193e+06,3036.36,79,6,-0.001059928,2.499997,-0.00264982,0.0009058201,0.0008938339,0.002964669,0.002593811,3076.18,3035.95,0,98.67676,,
	08/01/2022 04:49:06.626,1.088e+06,3017.41,80,6,-0.001059914,2.499991,-0.00264978,0.0008988355,0.0008882807,0.002941695,0.002577744,3052.443,3016.995,0,98.82572,,
	08/01/2022 06:29:40.409,1.09403e+06,2999.22,81,6,-0.001059885,2.49999,-0.0026497,0.0008934385,0.0008829302,0.002924064,0.002561997,3034.09,2998.832,0,98.82384,,
	08/01/2022 08:09:35.264,1100029.335,2978.79,82,6,-0.0010599,2.499988,-0.00264974,0.000887989,0.0008769086,0.002906134,0.002544877,3015.567,2978.397,0,98.7522,,
	08/01/2022 09:48:51.660,1.10599e+06,2961.04,83,6,-0.001059942,2.499986,-0.00264984,0.0008819064,0.0008716887,0.002886097,0.002529591,2994.886,2960.617,0,98.84141,,
	08/01/2022 11:27:25.236,1.1119e+06,2939.27,84,6,-0.001059905,2.499999,-0.00264976,0.0008757011,0.0008652459,0.002866214,0.002510582,2973.839,2938.856,0,98.80608,,
	08/01/2022 13:05:28.113,1.11778e+06,2925.97,85,6,-0.001059914,2.499986,-0.00264977,0.0008705716,0.000861323,0.002849339,0.002499438,2956.438,2925.575,0,98.93764,,
	08/01/2022 14:43:04.934,1123639.005,2912.79,86,6,-0.001060127,2.499993,-0.00265031,0.000866792,0.0008575022,0.002836791,0.002488622,2943.569,2912.412,0,98.92825,,
	08/01/2022 16:20:29.120,1.12948e+06,2906.74,87,6,-0.001059856,2.499991,-0.00264963,0.0008648529,0.0008556736,0.002829833,0.002484136,2937.011,2906.356,0,98.93863,,
	08/01/2022 17:57:30.794,1.1353e+06,2893.57,88,6,-0.001059887,2.499997,-0.00264971,0.0008620935,0.0008517823,0.002820479,0.002473299,2927.651,2893.179,0,98.80393,,
	08/01/2022 19:34:00.944,1141095.015,2879.01,89,6,-0.001059842,2.499997,-0.0026496,0.0008571081,0.0008475253,0.002804113,0.002461034,2910.702,2878.629,0,98.88195,,
	08/01/2022 21:10:07.324,1.14686e+06,2866.44,90,6,-0.001059847,2.499997,-0.00264961,0.0008538126,0.0008438239,0.002793093,0.002450689,2899.481,2866.058,0,98.8301,,
	08/01/2022 22:45:46.617,1.1526e+06,2854.7,91,6,-0.001059894,2.499988,-0.00264972,0.0008493055,0.0008404449,0.002778191,0.00244108,2884.151,2854.303,0,98.95673,,
	08/02/2022 00:21:03.546,1.15832e+06,2842.01,92,6,-0.001059847,2.499995,-0.00264961,0.0008464651,0.0008367085,0.002768477,0.002430537,2874.489,2841.633,0,98.84737,,
	08/02/2022 01:55:49.940,1.164e+06,2826.7,93,6,-0.001059864,2.499999,-0.00264966,0.0008419704,0.0008322139,0.002753781,0.002417577,2859.257,2826.302,0,98.84122,,
	08/02/2022 03:30:06.740,1.16966e+06,2811.935,94,6,-0.001060157,2.49999,-0.00265038,0.0008376151,0.0008279189,0.00273939,0.002405193,2844.444,2811.538,0,98.84241,,
	08/02/2022 05:03:53.640,1.17529e+06,2797.39,95,6,-0.00106015,2.499997,-0.00265037,0.0008330832,0.0008236555,0.002724493,0.002392854,2829.066,2797.037,0,98.86834,,
	08/02/2022 06:37:12.223,1.18089e+06,2783.02,96,6,-0.001060088,2.499997,-0.00265022,0.000828968,0.0008193805,0.002710902,0.002380561,2815.135,2782.639,0,98.84343,,
	08/02/2022 08:09:58.661,1.18645e+06,2766.774,97,6,-0.001060168,2.499986,-0.00265041,0.0008242762,0.0008145929,0.002695451,0.002366705,2799.222,2766.381,0,98.82523,,
	08/02/2022 09:41:47.847,1.19196e+06,2737.43,98,6,-0.001059859,2.499976,-0.00264962,0.0008160814,0.0008058291,0.002669033,0.002339593,2771.336,2737.07,0,98.74371,,
	08/02/2022 11:12:28.111,1.1974e+06,2703.81,99,6,-0.001059905,2.499997,-0.00264976,0.000805667,0.0007959403,0.002636137,0.002309239,2735.993,2703.434,0,98.79272,,
	08/02/2022 12:42:14.123,1.20279e+06,2677.82,100,6,-0.001059938,2.499997,-0.00264984,0.0007973723,0.0007883038,0.002609862,0.002286176,2707.761,2677.486,0,98.86271,,
	08/02/2022 14:11:22.910,1.20814e+06,2661.59,101,6,-0.001059919,2.499997,-0.00264979,0.0007911968,0.0007835263,0.002589973,0.002272122,2686.776,2661.222,0,99.03053,,
	08/02/2022 15:40:11.953,1.21347e+06,2651.32,102,6,-0.001059909,2.49999,-0.00264976,0.0007883876,0.000780519,0.002580791,0.002263527,2677.28,2650.978,0,99.00193,,
	08/02/2022 17:08:33.718,1.21877e+06,2636.58,103,6,-0.00105991,2.499988,-0.00264976,0.0007846986,0.0007761578,0.002568659,0.002251009,2664.732,2636.228,0,98.91157,,
	08/02/2022 18:36:27.144,1.22404e+06,2622.08,104,6,-0.001059921,2.499997,-0.0026498,0.0007806142,0.0007718771,0.00255498,0.002238707,2650.905,2621.731,0,98.88074,,
	08/02/2022 20:03:47.258,1.22928e+06,2605.18,105,6,-0.001059892,2.499995,-0.00264972,0.0007757727,0.0007669097,0.002539389,0.002224062,2634.468,2604.833,0,98.85753,,
	08/02/2022 21:30:43.020,1.2345e+06,2597.02,106,6,-0.001059871,2.499993,-0.00264967,0.0007710154,0.0007645029,0.002523871,0.002217136,2618.298,2596.718,0,99.15533,,
	08/02/2022 22:57:24.499,1.2397e+06,2586.96,107,6,-0.001059898,2.499991,-0.00264974,0.0007697789,0.0007615373,0.00251944,0.002208728,2614.101,2586.614,0,98.92936,,
	08/03/2022 00:23:36.654,1244870.725,2571.4,108,6,-0.001059907,2.499988,-0.00264975,0.0007657104,0.0007569733,0.002506044,0.002195402,2600.295,2571.052,0,98.85896,,
	08/03/2022 01:49:14.711,1250008.782,2555.81,109,6,-0.001059943,2.499993,-0.00264985,0.0007602786,0.000752388,0.002488465,0.002181603,2581.821,2555.472,0,98.96214,,
	08/03/2022 03:14:19.493,1.25511e+06,2539.57,110,6,-0.001059945,2.499999,-0.00264986,0.0007552628,0.0007476083,0.002472337,0.002167589,2564.791,2539.233,0,98.98651,,
	08/03/2022 04:39:00.573,1.26019e+06,2527.04,111,6,-0.001059935,2.499986,-0.00264982,0.0007519535,0.0007439077,0.002461471,0.002156752,2553.603,2526.678,0,98.93001,,
	08/03/2022 06:03:15.859,1.26525e+06,2514.22,112,6,-0.001059965,2.499999,-0.00264991,0.0007481327,0.0007401284,0.002449032,0.002145811,2540.658,2513.842,0,98.93009,,
	08/03/2022 07:27:04.274,1270278.345,2501.32,113,6,-0.001059884,2.499993,-0.0026497,0.0007440069,0.0007363398,0.002435382,0.002134843,2526.644,2500.995,0,98.96948,,
	08/03/2022 08:50:28.830,1.27528e+06,2488.88,114,6,-0.001059894,2.499999,-0.00264973,0.0007406898,0.0007326615,0.002424567,0.002124188,2515.297,2488.509,0,98.9161,,
	08/03/2022 10:13:30.561,1.28026e+06,2479.17,115,6,-0.001059859,2.499999,-0.00264965,0.000736822,0.0007297959,0.002411858,0.00211575,2502.185,2478.793,0,99.04644,,
	08/03/2022 11:36:03.649,1.28522e+06,2463.699,116,6,-0.001059894,2.49998,-0.00264971,0.0007329386,0.0007252346,0.002399363,0.002102411,2489.019,2463.341,0,98.94889,,
	08/03/2022 12:58:23.050,1.29016e+06,2457.66,117,6,-0.001059856,2.499988,-0.00264963,0.0007306782,0.0007234535,0.002391768,0.002097753,2481.341,2457.307,0,99.01124,,
	08/03/2022 14:20:28.562,1.29508e+06,2450.33,118,6,-0.001059868,2.499984,-0.00264965,0.0007287586,0.0007213232,0.002385106,0.002091903,2474.787,2450.005,0,98.97972,,
	08/03/2022 15:42:11.343,1299985.414,2438.4,119,6,-0.001059875,2.499978,-0.00264966,0.0007255793,0.0007178084,0.002374573,0.002081609,2463.99,2438.093,0,98.92901,,
	08/03/2022 17:03:23.881,1.30486e+06,2423.91,120,6,-0.001059933,2.499974,-0.0026498,0.0007209496,0.0007135398,0.002359618,0.00206877,2448.258,2423.566,0,98.97222,,
	08/03/2022 18:23:58.616,1.30969e+06,2404.33,121,6,-0.001059862,2.499982,-0.00264964,0.000715549,0.0007077886,0.002342226,0.00205137,2430.01,2404.011,0,98.91546,,
	08/03/2022 19:44:10.436,1.3145e+06,2394.51,122,6,-0.001059873,2.499984,-0.00264967,0.0007117301,0.0007048798,0.002329893,0.002042974,2416.943,2394.19,0,99.03752,,
	08/03/2022 21:03:58.047,1.31929e+06,2383.18,123,6,-0.00105988,2.499995,-0.00264969,0.0007079268,0.0007015414,0.002317533,0.002033036,2404.041,2382.857,0,99.09801,,
	08/03/2022 22:23:27.425,1.32406e+06,2372.5,124,6,-0.001059894,2.499969,-0.0026497,0.0007057109,0.0006984386,0.002310177,0.002024373,2396.501,2372.213,0,98.96951,,
	08/03/2022 23:42:45.103,1.32882e+06,2367.15,125,6,-0.001060176,2.499976,-0.00265041,0.0007038225,0.0006968417,0.002303735,0.002020312,2390.137,2366.826,0,99.00816,,
	08/04/2022 01:01:55.462,1.33357e+06,2364.12,126,6,-0.00105985,2.499991,-0.00264962,0.0007025799,0.0006960056,0.002299318,0.002018425,2385.843,2363.785,0,99.06427,,
	08/04/2022 02:20:56.911,1.33831e+06,2360.11,127,6,-0.00105991,2.499995,-0.00264977,0.0007011304,0.0006947841,0.002294226,0.002015039,2380.958,2359.774,0,99.09485,,
	08/04/2022 03:39:24.063,1.34302e+06,2339.81,128,6,-0.001059861,2.499995,-0.00264965,0.0006970191,0.0006887598,0.002280965,0.00199675,2366.983,2339.451,0,98.81506,,
	08/04/2022 04:57:14.530,1.34769e+06,2323.531,129,6,-0.001059906,2.499995,-0.00264976,0.0006909934,0.0006839872,0.002261653,0.001982278,2346.548,2323.211,0,98.98607,,
	08/04/2022 06:14:37.004,1.35233e+06,2310.17,130,6,-0.001059857,2.499995,-0.00264964,0.0006866791,0.0006800645,0.002247756,0.001970595,2331.916,2309.865,0,99.03673,,
	08/04/2022 07:31:33.272,1.35695e+06,2295.72,131,6,-0.001059943,2.499993,-0.00264985,0.0006832145,0.0006758213,0.002236562,0.001958294,2320.135,2295.434,0,98.91788,,
	08/04/2022 08:48:04.593,1.36154e+06,2284.96,132,6,-0.001059959,2.499988,-0.00264988,0.0006790289,0.0006726694,0.002222955,0.001948795,2305.963,2284.671,0,99.06344,,
	08/04/2022 10:04:15.482,1.36611e+06,2274.22,133,6,-0.001059907,2.499978,-0.00264974,0.0006761847,0.0006694915,0.002213656,0.001939687,2296.257,2273.91,0,99.01015,,
	08/04/2022 11:20:12.097,1.37067e+06,2267.68,134,6,-0.001059845,2.499993,-0.00264961,0.00067392,0.0006675303,0.002206159,0.001934298,2288.569,2267.349,0,99.05186,,
	08/04/2022 12:35:58.160,1.37521e+06,2261.6,135,6,-0.001059853,2.499988,-0.00264962,0.0006725937,0.0006657353,0.002201458,0.001929437,2284.095,2261.255,0,98.98032,,
	08/04/2022 13:51:30.282,1.37974e+06,2256.25,136,6,-0.001059876,2.499991,-0.00264968,0.000670077,0.0006641743,0.002193063,0.001925004,2275.532,2255.936,0,99.11909,,
	08/04/2022 15:06:41.034,1.38426e+06,2243.99,137,6,-0.001059894,2.499999,-0.00264973,0.0006673742,0.0006605661,0.002184252,0.001914258,2266.4,2243.668,0,98.97987,,
	08/04/2022 16:21:27.778,1.38874e+06,2232.03,138,6,-0.00105988,2.49998,-0.00264968,0.0006638311,0.0006570484,0.002172801,0.001903876,2254.328,2231.72,0,98.97824,,
	08/04/2022 17:35:58.375,1.39321e+06,2224.34,139,6,-0.00105985,2.499988,-0.00264961,0.000661354,0.0006547886,0.002164582,0.001897541,2245.881,2224.063,0,99.00727,,
	08/04/2022 18:50:13.094,1.39767e+06,2217.66,140,6,-0.001060034,2.499991,-0.00265008,0.0006586488,0.0006528139,0.002155651,0.001891796,2236.679,2217.344,0,99.11411,,
	08/04/2022 20:04:10.830,1.4021e+06,2208.09,141,6,-0.0010599,2.499993,-0.00264974,0.0006564672,0.0006499996,0.002148496,0.001883632,2229.311,2207.796,0,99.01479,,
	08/04/2022 21:17:52.401,1.40653e+06,2201.38,142,6,-0.00105988,2.499997,-0.0026497,0.0006536701,0.0006480255,0.002139319,0.001877897,2219.854,2201.076,0,99.13647,,
	08/04/2022 22:31:15.214,1.41093e+06,2190.96,143,6,-0.001059889,2.49999,-0.00264971,0.0006512168,0.0006449681,0.002131359,0.001868737,2211.502,2190.677,0,99.04046,,
	08/04/2022 23:44:12.311,1.41531e+06,2176.7,144,6,-0.001059882,2.499993,-0.0026497,0.0006478389,0.0006407786,0.002120438,0.001856318,2200.017,2176.438,0,98.91017,,
	08/05/2022 00:56:43.644,1.41966e+06,2165.289,145,6,-0.00105987,2.499991,-0.00264967,0.0006436171,0.0006374114,0.002106747,0.001846261,2185.676,2165.004,0,99.0358,,
	08/05/2022 02:08:48.341,1.42398e+06,2150.1,146,6,-0.001059898,2.499993,-0.00264974,0.0006402468,0.0006329349,0.00209584,0.00183311,2174.262,2149.816,0,98.85796,,
	08/05/2022 03:20:27.483,1.42828e+06,2140.08,147,6,-0.001059894,2.499988,-0.00264972,0.0006356693,0.0006299859,0.002081012,0.001824262,2158.718,2139.783,0,99.10593,,
	08/05/2022 04:31:46.877,1.43256e+06,2129.73,148,6,-0.001059938,2.499995,-0.00264984,0.0006329055,0.0006269696,0.002072059,0.001815406,2149.336,2129.44,0,99.06212,,
	08/05/2022 05:42:50.562,1436824.633,2121.68,149,6,-0.001059907,2.499995,-0.00264976,0.0006306361,0.0006245979,0.002064468,0.00180861,2141.651,2121.393,0,99.04253,,
	08/05/2022 06:53:34.598,1.44107e+06,2112.38,150,6,-0.001059963,2.499986,-0.00264989,0.0006276097,0.0006218503,0.002054709,0.001800607,2131.293,2112.095,0,99.08234,,
	08/05/2022 08:04:02.964,1.4453e+06,2103.61,151,6,-0.001059894,2.499995,-0.00264973,0.0006255538,0.0006192509,0.002047953,0.001793078,2124.379,2103.31,0,98.99244,,
	08/05/2022 09:14:16.916,1.44951e+06,2097.72,152,6,-0.001059977,2.49999,-0.00264993,0.0006230505,0.0006175166,0.002039592,0.001788046,2115.887,2097.405,0,99.11181,,
	08/05/2022 10:24:13.222,1.45371e+06,2088.61,153,6,-0.001059859,2.499991,-0.00264964,0.0006205395,0.0006148358,0.002031498,0.00178021,2107.386,2088.325,0,99.08086,,
	08/05/2022 11:33:50.388,1.45788e+06,2078.37,154,6,-0.00105982,2.499993,-0.00264954,0.0006179296,0.0006118171,0.002023051,0.001771396,2098.441,2078.085,0,99.01082,,
	08/05/2022 12:43:19.381,1.46205e+06,2076.009,155,6,-0.001060157,2.499999,-0.00265039,0.0006162248,0.0006111769,0.002017351,0.001769902,2092.635,2075.751,0,99.18084,,
	08/05/2022 13:52:46.108,1.46622e+06,2073.78,156,6,-0.001059866,2.499997,-0.00264966,0.0006162113,0.0006105129,0.002016961,0.001768401,2092.606,2073.51,0,99.07524,,
	08/05/2022 15:02:05.729,1.47038e+06,2070.8,157,6,-0.00105985,2.499986,-0.00264961,0.0006150027,0.000609618,0.002012771,0.001766118,2088.487,2070.495,0,99.12444,,
	08/05/2022 16:11:16.892,1474530.963,2065.72,158,6,-0.001059857,2.499999,-0.00264964,0.0006140091,0.0006081713,0.002009369,0.001762132,2085.106,2065.414,0,99.04924,,
	08/05/2022 17:20:14.449,1478668.52,2057.27,159,6,-0.001059839,2.49998,-0.00264958,0.0006124821,0.0006056918,0.002004209,0.001755022,2079.939,2056.991,0,98.89136,,
	08/05/2022 18:28:55.333,1.48279e+06,2050.63,160,6,-0.001059827,2.499999,-0.00264957,0.0006095325,0.0006037216,0.001994474,0.001749418,2069.924,2050.341,0,99.04665,,
	08/05/2022 19:37:20.463,1.48689e+06,2042.67,161,6,-0.001060165,2.49999,-0.0026504,0.000607224,0.0006013248,0.001986878,0.001742395,2062.089,2042.422,0,99.0285,,
	08/05/2022 20:45:27.394,1.49098e+06,2033.73,162,6,-0.001059854,2.499978,-0.00264961,0.0006045185,0.0005987058,0.001978056,0.001734685,2052.874,2033.443,0,99.03848,,
	08/05/2022 21:53:16.283,1.49505e+06,2024.74,163,6,-0.001059839,2.499967,-0.00264956,0.000601835,0.0005960121,0.001969264,0.001726728,2043.815,2024.423,0,99.03248,,
	08/05/2022 23:00:46.561,1.4991e+06,2016.09,164,6,-0.001059811,2.499995,-0.00264952,0.0005989142,0.0005934726,0.001959759,0.001719081,2033.859,2015.81,0,99.09142,,
	08/06/2022 00:07:56.613,1.50313e+06,2005.17,165,6,-0.00105984,2.49999,-0.00264959,0.0005961721,0.0005902746,0.001950861,0.001709675,2024.524,2004.925,0,99.01077,,
	08/06/2022 01:14:42.381,1.50714e+06,1992.16,166,6,-0.001059864,2.49998,-0.00264964,0.0005928677,0.0005864506,0.001940186,0.001698361,2013.291,1991.914,0,98.9176,,
	08/06/2022 02:21:05.638,1.51112e+06,1982.52,167,6,-0.001059871,2.499988,-0.00264966,0.0005890483,0.0005835913,0.001927817,0.001689843,2000.392,1982.249,0,99.07359,,
	08/06/2022 03:27:06.150,1.51508e+06,1969.47,168,6,-0.0010599,2.499957,-0.0026497,0.0005862029,0.0005797483,0.001918598,0.001678537,1990.726,1969.182,0,98.89892,,
	08/06/2022 04:32:46.723,1.51902e+06,1963.07,169,6,-0.001059861,2.499997,-0.00264965,0.0005822184,0.0005778872,0.00190565,0.00167287,1977.184,1962.809,0,99.25608,,
	08/06/2022 05:38:11.750,1.52295e+06,1952.89,170,6,-0.001059878,2.499988,-0.00264968,0.0005806303,0.0005748852,0.001900561,0.001664,1971.785,1952.647,0,99.01053,,
	08/06/2022 06:43:17.317,1.52685e+06,1943.74,171,6,-0.001059928,2.499974,-0.00264979,0.0005775967,0.0005721906,0.001890681,0.00165601,1961.502,1943.456,0,99.06405,,
	08/06/2022 07:48:05.630,1.53074e+06,1935.36,172,6,-0.001059905,2.499993,-0.00264976,0.0005750024,0.0005697145,0.001882267,0.001648706,1952.646,1935.068,0,99.08036,,
	08/06/2022 08:52:31.354,1.53461e+06,1922.769,173,6,-0.001059937,2.499995,-0.00264984,0.0005720549,0.0005660276,0.00187273,0.001637769,1942.655,1922.519,0,98.94638,,
	08/06/2022 09:56:37.227,1.53845e+06,1913.82,174,6,-0.001059949,2.499984,-0.00264986,0.0005688258,0.0005633763,0.001862252,0.001630031,1931.695,1913.567,0,99.04198,,
	08/06/2022 11:00:27.909,1.54228e+06,1906.669,175,6,-0.001059868,2.499997,-0.00264967,0.0005664661,0.0005612569,0.001854575,0.0016239,1923.687,1906.376,0,99.08041,,
	08/06/2022 12:04:03.214,1.5461e+06,1899.37,176,6,-0.001059871,2.499986,-0.00264966,0.000564085,0.000559125,0.001846724,0.001617631,1915.63,1899.093,0,99.1207,,
	08/06/2022 13:07:28.535,1549902.606,1894.4,177,6,-0.00105984,2.499984,-0.00264958,0.0005626202,0.0005576669,0.001841844,0.001613632,1910.607,1894.169,0,99.1196,,
	08/06/2022 14:10:48.782,1553702.853,1892.48,178,6,-0.001059884,2.499984,-0.00264969,0.0005617026,0.0005570935,0.001838687,0.001612257,1907.451,1892.226,0,99.17943,,
	08/06/2022 15:14:04.633,1557498.704,1888.94,179,6,-0.001059837,2.499999,-0.00264959,0.000561435,0.0005561303,0.001837638,0.001609762,1906.596,1888.662,0,99.05515,,
	08/06/2022 16:17:16.804,1.56129e+06,1888.01,180,6,-0.001059862,2.499984,-0.00264964,0.0005606227,0.000555857,0.001834721,0.001609289,1903.846,1887.761,0,99.14992,,
	08/06/2022 17:20:23.413,1.56508e+06,1885.11,181,6,-0.001059808,2.499978,-0.0026495,0.0005598248,0.0005549931,0.001831927,0.001606977,1901.142,1884.874,0,99.13694,,
	08/06/2022 18:23:23.862,1568857.933,1883.03,182,6,-0.001060164,2.499988,-0.0026504,0.0005586374,0.0005543477,0.001827981,0.001605164,1897.107,1882.766,0,99.23211,,
	08/06/2022 19:26:12.827,1.57263e+06,1874.95,183,6,-0.001059843,2.499993,-0.0026496,0.0005576283,0.0005520384,0.001824598,0.001598449,1893.682,1874.674,0,98.99756,,
	08/06/2022 20:28:43.811,1.57638e+06,1865.83,184,6,-0.00105985,2.499995,-0.00264962,0.000555035,0.000549254,0.001816129,0.001590203,1884.843,1865.593,0,98.95845,,
	08/06/2022 21:30:55.480,1.58011e+06,1856.87,185,6,-0.00105988,2.499991,-0.00264969,0.000551981,0.0005466357,0.001806151,0.00158248,1874.449,1856.604,0,99.03162,,
	08/06/2022 22:32:49.585,1583823.656,1848.852,186,6,-0.001059857,2.499978,-0.00264962,0.0005491698,0.0005442784,0.001797012,0.001575366,1864.916,1848.547,0,99.10931,,
	08/06/2022 23:34:24.974,1.58752e+06,1838.64,187,6,-0.001059889,2.49999,-0.00264971,0.0005466616,0.0005412961,0.001788903,0.001566587,1856.418,1838.385,0,99.0185,,
	08/07/2022 00:35:39.091,1.59119e+06,1827.65,188,6,-0.00105985,2.499986,-0.00264961,0.0005436368,0.0005380008,0.001779121,0.001556824,1846.147,1827.375,0,98.96327,,
	08/07/2022 01:36:34.934,1.59485e+06,1820.71,189,6,-0.001060129,2.499999,-0.00265032,0.0005403089,0.0005359791,0.001768323,0.001550746,1834.814,1820.437,0,99.19865,,
	08/07/2022 02:37:15.318,1.59849e+06,1811.77,190,6,-0.001059892,2.499995,-0.00264972,0.0005383831,0.0005333334,0.001762132,0.001542963,1828.276,1811.509,0,99.06205,,
	08/07/2022 03:37:35.515,1.60211e+06,1800.26,191,6,-0.001059822,2.499986,-0.00264954,0.000535835,0.0005299374,0.001753849,0.001532973,1819.607,1799.995,0,98.89935,,
	08/07/2022 04:37:37.790,1.60571e+06,1793.59,192,6,-0.001059864,2.49999,-0.00264965,0.0005325224,0.0005279624,0.00174306,0.001527143,1808.371,1793.304,0,99.1437,,
	08/07/2022 05:37:26.600,1.6093e+06,1786.84,193,6,-0.001059843,2.49998,-0.00264959,0.000530533,0.000525985,0.001736607,0.001521266,1801.611,1786.578,0,99.14274,,
	08/07/2022 06:37:02.968,1.61288e+06,1781.04,194,6,-0.00105988,2.499997,-0.0026497,0.0005285662,0.0005242649,0.001730179,0.001516182,1794.961,1780.737,0,99.18624,,
	08/07/2022 07:36:26.642,1.61644e+06,1773.73,195,6,-0.001059906,2.499995,-0.00264976,0.0005269941,0.0005221365,0.001725069,0.001509908,1789.641,1773.472,0,99.07825,,
	08/07/2022 08:35:32.633,1.61999e+06,1764.53,196,6,-0.001059873,2.499978,-0.00264966,0.0005244985,0.0005194376,0.001716979,0.001501914,1781.13,1764.285,0,99.0351,,
	08/07/2022 09:34:19.754,1.62351e+06,1755.836,197,6,-0.001059892,2.49999,-0.00264972,0.0005215196,0.0005168607,0.001707364,0.001494202,1770.99,1755.556,0,99.10667,,
	08/07/2022 10:32:49.822,1627023.893,1745.5,198,6,-0.001059885,2.499997,-0.00264971,0.0005195279,0.0005138078,0.001700886,0.00148535,1764.248,1745.22,0,98.89899,,
	08/07/2022 11:31:03.219,1630517.29,1739.254,199,6,-0.001059909,2.49999,-0.00264976,0.0005164466,0.0005119849,0.001690824,0.001479985,1753.824,1739.01,0,99.13607,,
	08/07/2022 12:29:06.639,1.634e+06,1734.566,200,6,-0.001059889,2.499986,-0.00264971,0.0005148876,0.000510613,0.001685717,0.001476122,1748.509,1734.307,0,99.1698,,