File: Cell-test-data/SiMP-LFP-PFF3/JB5_SiMP-LFP-PFF3_03C_Channel_89_StatisticByStep.CSV
Date_Time                    ,Test Time (s),Step Time (s),Cycle Index,Step Index,Current (A),Voltage (V),Power (W),Charge Capacity (Ah),Discharge Capacity (Ah),Charge Energy (Wh),Discharge Energy (Wh),Charge Time (s),Discharge Time (s),V_Max_On_Cycle (V),Coulombic Efficiency (%),mAh/g
	07/20/2022 02:35:37.274,43200,43200,1.00,1.00,0,0.2391911,0,0,0,0,0,0,0,0,0,,
	07/21/2022 16:25:16.587,179379,61879,1.00,3.00,-0.0001590133,2.499991,-0.000397532,0.003281198,0.002732652,0.01087284,0.008114055,74287.66,61869.98,0,83.28213,,
	07/23/2022 02:29:58.769,302061,60035.4,2.00,3.00,-0.0001590134,2.499997,-0.000397533,0.002766605,0.002651323,0.008940663,0.007851556,62637.97,60026.61,0,95.83308,,
	07/24/2022 11:35:04.190,421167,58586.5,3.00,3.00,-0.0001590151,2.499982,-0.000397535,0.002672635,0.002587127,0.008607177,0.00763758,60509.66,58577.48,0,96.80063,,
	07/24/2022 15:59:31.878,437035,7677.63,4.00,6.00,-0.00106011,2.499988,-0.00265026,0.002411279,0.002260562,0.00788568,0.006550843,8188.638,7676.518,0,93.74951,,
	07/24/2022 20:11:27.195,452150,7478.92,5.00,6.00,-0.001060124,2.499997,-0.00265031,0.002248288,0.002202055,0.007333994,0.006374842,7635.218,7477.792,0,97.94366,,
	07/25/2022 00:18:40.419,466983,7343.37,6.00,6.00,-0.001059856,2.499988,-0.00264963,0.00220517,0.002162082,0.007192734,0.006254397,7488.649,7342.255,0,98.04607,,
	07/25/2022 04:22:10.667,481593,7232.28,7.00,6.00,-0.00106013,2.499997,-0.00265032,0.002172194,0.002129424,0.007084142,0.006159233,7376.763,7231.187,0,98.03105,,
	07/25/2022 08:22:07.986,495991,7128.19,8.00,6.00,-0.001060133,2.499982,-0.00265031,0.00214022,0.002098675,0.006979521,0.006069888,7267.954,7127.197,0,98.05885,,
	07/25/2022 12:18:31.773,510174,7021.3,9.00,6.00,-0.001059842,2.499993,-0.0026496,0.002108807,0.002067111,0.006876962,0.005978555,7161.342,7020.222,0,98.02279,,
	07/25/2022 16:11:13.653,524136,6910.93,10.00,6.00,-0.001060108,2.499999,-0.00265027,0.002075906,0.002034828,0.006770338,0.005885479,7049.832,6909.935,0,98.02122,,
	07/25/2022 20:00:46.548,537909,6819.83,11.00,6.00,-0.001059833,2.499999,-0.00264958,0.002047053,0.002007867,0.00667592,0.005808432,6951.897,6818.797,0,98.08577,,
	07/25/2022 23:46:34.257,551457,6706.64,12.00,6.00,-0.001060155,2.499997,-0.00265038,0.002014126,0.001974472,0.006569911,0.005710867,6839.991,6705.631,0,98.03117,,
	07/26/2022 03:29:09.707,564812,6615.23,13.00,6.00,-0.001059869,2.499995,-0.00264967,0.001984457,0.001947469,0.006474064,0.005633768,6739.169,6614.265,0,98.13614,,
	07/26/2022 07:08:39.475,577982,6523.67,14.00,6.00,-0.001059893,2.499999,-0.00264973,0.001956763,0.001920437,0.006384122,0.005556458,6645.062,6522.7,0,98.14357,,
	07/26/2022 10:45:17.888,590981,6439.24,15.00,6.00,-0.001059803,2.499993,-0.0026495,0.001931157,0.001895697,0.006300954,0.005486168,6558.143,6438.237,0,98.16383,,
	07/26/2022 14:18:35.351,603778,6336.72,16.00,6.00,-0.001060103,2.499988,-0.00265024,0.001902199,0.00186573,0.00620777,0.005399132,6459.724,6335.734,0,98.0828,,
	07/26/2022 17:49:15.817,616419,6262.75,17.00,6.00,-0.001060083,2.499991,-0.0026502,0.001877713,0.001843916,0.00612798,0.00533891,6376.688,6261.778,0,98.20008,,
	07/26/2022 21:16:54.562,628877,6169.35,18.00,6.00,-0.001060108,2.499991,-0.00265026,0.001851719,0.001816437,0.006043396,0.005258926,6288.432,6168.401,0,98.09463,,
	07/27/2022 00:41:32.901,641156,6085.99,19.00,6.00,-0.001059858,2.499997,-0.00264964,0.00182316,0.001791768,0.005952476,0.005187643,6191.382,6085.131,0,98.27818,,
	07/27/2022 04:03:41.506,653284,6011.55,20.00,6.00,-0.001059849,2.499988,-0.00264961,0.001800976,0.001769827,0.005880055,0.005125462,6116.068,6010.642,0,98.27039,,
	07/27/2022 07:23:25.118,665268,5940.54,21.00,6.00,-0.001059863,2.499991,-0.00264965,0.001779236,0.001748728,0.005809586,0.005065322,6042.214,5939.68,0,98.28535,,
	07/27/2022 10:40:36.315,677099,5865.8,22.00,6.00,-0.001059899,2.499988,-0.00264973,0.001756352,0.001726743,0.005735273,0.005002096,5964.467,5864.916,0,98.31414,,
	07/27/2022 13:55:08.890,688772,5781.66,23.00,6.00,-0.00106013,2.499993,-0.00265032,0.00173436,0.00170228,0.005664154,0.004931759,5889.925,5780.856,0,98.1503,,
	07/27/2022 17:07:13.599,700296,5712.73,24.00,6.00,-0.001060094,2.499999,-0.00265023,0.001711156,0.001681971,0.005589334,0.004874782,5811.054,5711.837,0,98.2944,,
	07/27/2022 20:17:12.612,711695,5650.43,25.00,6.00,-0.001060139,2.499988,-0.00265033,0.001692486,0.001663652,0.005527875,0.004822997,5747.65,5649.594,0,98.2963,,
	07/27/2022 23:24:17.849,722921,5562.38,26.00,6.00,-0.001059838,2.499997,-0.00264959,0.00166728,0.001637724,0.005447678,0.004747048,5661.953,5561.54,0,98.22726,,
	07/28/2022 02:29:17.971,734021,5508.58,27.00,6.00,-0.001059895,2.49998,-0.00264972,0.001646282,0.00162167,0.005379139,0.004701195,5590.639,5507.842,0,98.50499,,
	07/28/2022 05:32:18.344,745001,5445.34,28.00,6.00,-0.001060133,2.499999,-0.00265033,0.00162967,0.00160313,0.005325404,0.004647873,5534.239,5444.617,0,98.37147,,
	07/28/2022 08:33:06.644,755849,5378.54,29.00,6.00,-0.001060186,2.499997,-0.00265046,0.001610457,0.001583371,0.00526303,0.004591207,5469.022,5377.829,0,98.31812,,
	07/28/2022 11:31:40.388,766563,5310.65,30.00,6.00,-0.001059847,2.499988,-0.0026496,0.001590805,0.001563395,0.005199467,0.004533942,5402.327,5309.928,0,98.27698,,
	07/28/2022 14:27:49.089,777132,5237.93,31.00,6.00,-0.001060139,2.499984,-0.00265033,0.001569493,0.001542216,0.005130363,0.004472581,5330.006,5237.274,0,98.262,,
	07/28/2022 17:21:55.922,787579,5182.77,32.00,6.00,-0.001060097,2.499976,-0.00265022,0.00154984,0.001526011,0.005067104,0.004426828,5263.335,5182.09,0,98.46246,,
	07/28/2022 20:14:14.753,797917,5127.06,33.00,6.00,-0.001060163,2.499997,-0.0026504,0.001534453,0.001509539,0.005016493,0.004379587,5211.035,5126.38,0,98.3764,,
	07/28/2022 23:04:18.765,808121,5060.73,34.00,6.00,-0.001060165,2.499988,-0.0026504,0.001514284,0.001489928,0.004951757,0.004322083,5142.554,5060.06,0,98.39156,,
	07/29/2022 01:52:27.229,818210,5004.64,35.00,6.00,-0.00105984,2.499986,-0.00264959,0.001496754,0.001473317,0.004895013,0.004274401,5083.086,5004.006,0,98.43411,,
	07/29/2022 04:38:38.379,828181,4942.87,36.00,6.00,-0.001059838,2.499997,-0.00264959,0.001480413,0.001455246,0.004841962,0.004222858,5027.558,4942.254,0,98.3,,
	07/29/2022 07:22:52.719,838035,4889.41,37.00,6.00,-0.001059855,2.499997,-0.00264963,0.001461765,0.001439331,0.004781319,0.004177015,4964.217,4888.713,0,98.46532,,
	07/29/2022 10:05:23.133,847786,4833.94,38.00,6.00,-0.00105986,2.499995,-0.00264964,0.001447492,0.00142297,0.004735042,0.004130526,4915.778,4833.285,0,98.30592,,
	07/29/2022 12:45:49.932,857413,4773.67,39.00,6.00,-0.001060128,2.499997,-0.00265032,0.001428852,0.001405463,0.004674442,0.004079823,4852.447,4773.055,0,98.36312,,
	07/29/2022 15:24:30.043,866933,4725.28,40.00,6.00,-0.001060135,2.499991,-0.00265033,0.001411654,0.001391282,0.00461917,0.004039706,4794.119,4724.637,0,98.55686,,
	07/29/2022 18:02:13.551,876396,4696.24,41.00,6.00,-0.001060064,2.499982,-0.00265014,0.001403523,0.001382764,0.004591154,0.004017572,4766.566,4695.668,0,98.521,,
	07/29/2022 20:38:06.779,885750,4636.13,42.00,6.00,-0.001060117,2.499993,-0.00265029,0.001388788,0.001365054,0.004542753,0.003965807,4716.471,4635.517,0,98.29105,,
	07/29/2022 23:11:47.979,894971,4572.41,43.00,6.00,-0.00106017,2.499993,-0.00265042,0.001368693,0.001346242,0.004478503,0.003910396,4648.096,4571.809,0,98.35968,,
	07/30/2022 01:43:31.202,904074,4517.73,44.00,6.00,-0.001059867,2.499999,-0.00264967,0.001350029,0.001329937,0.004418559,0.003862371,4584.833,4517.162,0,98.51173,,
	07/30/2022 04:13:26.818,913070,4462.49,45.00,6.00,-0.001060161,2.499999,-0.0026504,0.001334618,0.00131385,0.00436894,0.003815515,4532.475,4461.91,0,98.44389,,
	07/30/2022 06:41:43.722,921966,4413.77,46.00,6.00,-0.001060133,2.499976,-0.00265031,0.001319916,0.001299526,0.004321152,0.00377437,4482.511,4413.208,0,98.45525,,
	07/30/2022 09:08:28.337,930771,4368.28,47.00,6.00,-0.001059832,2.499993,-0.00264957,0.00130615,0.00128596,0.004276147,0.003735611,4435.681,4367.693,0,98.45427,,
	07/30/2022 11:33:44.017,939487,4325.36,48.00,6.00,-0.001060174,2.49998,-0.00265041,0.001292596,0.001273279,0.004232059,0.003699278,4389.68,4324.796,0,98.50551,,
	07/30/2022 13:57:25.584,948108,4278.7,49.00,6.00,-0.001060136,2.499982,-0.00265032,0.001278616,0.001259762,0.00418667,0.00365979,4342.229,4278.118,0,98.52542,,
	07/30/2022 16:19:56.743,956659,4246.75,50.00,6.00,-0.00106007,2.499997,-0.00265017,0.001267255,0.001250409,0.004149714,0.003634102,4303.78,4246.203,0,98.67062,,
	07/30/2022 18:41:24.189,965147,4210.4,51.00,6.00,-0.001060097,2.499991,-0.00265023,0.001259207,0.001239682,0.004122427,0.003603946,4276.416,4209.838,0,98.44939,,
	07/30/2022 21:01:02.761,973525,4155.32,52.00,6.00,-0.001059849,2.499995,-0.00264962,0.001243385,0.001223406,0.004071196,0.00355571,4222.638,4154.807,0,98.39319,,
	07/30/2022 23:18:51.914,981795,4104.64,53.00,6.00,-0.001060158,2.49999,-0.00265038,0.001226069,0.001208434,0.004015926,0.003511338,4163.866,4104.088,0,98.56169,,
	07/31/2022 01:35:23.074,989986,4067.28,54.00,6.00,-0.001060165,2.49999,-0.0026504,0.00121415,0.001197408,0.003977175,0.003479639,4123.314,4066.763,0,98.62112,,
	07/31/2022 03:50:38.238,998101,4030.67,55.00,6.00,-0.001059842,2.499988,-0.00264959,0.001202526,0.00118663,0.003939432,0.003448294,4083.846,4030.131,0,98.67815,,
	07/31/2022 06:04:40.997,1.00614e+06,3992.09,56.00,6.00,-0.00105986,2.499995,-0.00264964,0.001192567,0.001175261,0.003906699,0.003415933,4050.088,3991.563,0,98.54886,,
	07/31/2022 08:17:25.346,1.01411e+06,3954.34,57.00,6.00,-0.00105984,2.499997,-0.0026496,0.001180596,0.001164112,0.003867974,0.003383668,4009.382,3953.846,0,98.60378,,
	07/31/2022 10:28:58.062,1.022e+06,3917.85,58.00,6.00,-0.001059841,2.499997,-0.0026496,0.001170262,0.001153331,0.003834058,0.003352759,3974.31,3917.295,0,98.55322,,
	07/31/2022 12:39:05.428,1.02981e+06,3873.08,59.00,6.00,-0.001060153,2.499991,-0.00265037,0.001158319,0.001140169,0.003795138,0.003314524,3933.715,3872.596,0,98.43308,,
	07/31/2022 14:47:43.155,1.03753e+06,3831.7,60.00,6.00,-0.001060136,2.499993,-0.00265033,0.001144095,0.001128159,0.003749079,0.003279394,3885.457,3831.202,0,98.60714,,
	07/31/2022 16:55:08.074,1.04517e+06,3796.11,61.00,6.00,-0.00105983,2.499997,-0.00264957,0.001133137,0.001117692,0.003713641,0.003249084,3848.295,3795.587,0,98.63699,,
	07/31/2022 19:01:23.057,1.05275e+06,3759.29,62.00,6.00,-0.001059847,2.499999,-0.00264962,0.001123377,0.001106819,0.003681791,0.003218044,3815.133,3758.791,0,98.52608,,
	07/31/2022 21:06:38.697,1.06026e+06,3733.16,63.00,6.00,-0.001060145,2.499991,-0.00265035,0.001113617,0.001099178,0.003649642,0.003196646,3781.985,3732.661,0,98.70342,,
	07/31/2022 23:10:52.061,1.06771e+06,3700.3,64.00,6.00,-0.001059858,2.499988,-0.00264963,0.001104944,0.001089382,0.003621028,0.003168157,3752.528,3699.826,0,98.59158,,
	08/01/2022 01:13:46.263,1.07509e+06,3661.88,65.00,6.00,-0.001060144,2.499991,-0.00265035,0.001092937,0.001078143,0.003582174,0.00313505,3711.756,3661.415,0,98.64639,,
	08/01/2022 03:15:27.478,1.08239e+06,3628,66.00,6.00,-0.001059852,2.499999,-0.00264963,0.001081425,0.001068119,0.003545114,0.003105644,3672.675,3627.539,0,98.76965,,
	08/01/2022 05:16:10.904,1.08963e+06,3596.94,67.00,6.00,-0.001060177,2.499997,-0.00265044,0.001073582,0.001058872,0.003519555,0.003079023,3645.949,3596.495,0,98.62981,,
	08/01/2022 07:15:48.244,1.09681e+06,3564.99,68.00,6.00,-0.001060128,2.499991,-0.00265031,0.001063541,0.001049479,0.003486623,0.003051736,3611.824,3564.503,0,98.67781,,
	08/01/2022 09:14:22.996,1.10393e+06,3532.55,69.00,6.00,-0.001059852,2.49999,-0.00264962,0.001054663,0.001039947,0.003457703,0.003024357,3581.666,3532.082,0,98.6047,,
	08/01/2022 11:11:54.231,1.11098e+06,3505.2,70.00,6.00,-0.001060103,2.499974,-0.00265023,0.001043987,0.001032017,0.00342293,0.003000742,3545.491,3504.753,0,98.85345,,
	08/01/2022 13:08:35.755,1.11798e+06,3478.58,71.00,6.00,-0.001060169,2.499997,-0.00265042,0.001037208,0.001024241,0.003400873,0.002978547,3522.408,3478.133,0,98.74985,,
	08/01/2022 15:04:28.759,1.12493e+06,3454.07,72.00,6.00,-0.001060138,2.499999,-0.00265034,0.00103015,0.001017018,0.003377714,0.002958378,3498.441,3453.621,0,98.72521,,
	08/01/2022 16:59:44.921,1.13185e+06,3435.23,73.00,6.00,-0.001060097,2.49997,-0.00265021,0.001024842,0.00101146,0.003359631,0.002943332,3480.44,3434.778,0,98.69423,,
	08/01/2022 18:54:09.969,1.13871e+06,3409.79,74.00,6.00,-0.001060156,2.499993,-0.00265038,0.001017279,0.001003987,0.003334611,0.002922002,3454.745,3409.371,0,98.69341,,
	08/01/2022 20:47:48.470,1.14553e+06,3387.31,75.00,6.00,-0.001060128,2.499999,-0.00265032,0.00101017,0.0009973465,0.00331131,0.00290322,3430.673,3386.873,0,98.73056,,
	08/01/2022 22:40:41.572,1.1523e+06,3365.37,76.00,6.00,-0.001060122,2.499993,-0.0026503,0.001003271,0.0009908846,0.003288379,0.002884805,3407.233,3364.945,0,98.76545,,
	08/02/2022 00:32:53.583,1.15904e+06,3345.47,77.00,6.00,-0.001060094,2.499978,-0.00265021,0.000997043,0.0009850273,0.003267762,0.002868244,3386.042,3345.04,0,98.79486,,
	08/02/2022 02:24:19.641,1.16572e+06,3322.17,78.00,6.00,-0.001060069,2.499995,-0.00265017,0.0009903698,0.0009781437,0.00324592,0.002848487,3363.399,3321.75,0,98.7655,,
	08/02/2022 04:15:02.593,1.17237e+06,3301.95,79.00,6.00,-0.0010601,2.499988,-0.00265024,0.0009836439,0.0009721858,0.003223766,0.002831282,3340.529,3301.496,0,98.83514,,
	08/02/2022 06:04:58.145,1.17896e+06,3275.91,80.00,6.00,-0.001060126,2.499997,-0.00265031,0.0009773363,0.0009645332,0.00320304,0.002809472,3319.138,3275.49,0,98.69,,
	08/02/2022 07:54:04.830,1.18551e+06,3252.92,81.00,6.00,-0.001060121,2.499984,-0.00265029,0.0009697075,0.0009577871,0.00317803,0.002789911,3293.261,3252.52,0,98.77072,,
	08/02/2022 09:41:57.608,1.19198e+06,3213.76,82.00,6.00,-0.001060144,2.499993,-0.00265035,0.0009595026,0.0009462616,0.00314489,0.00275468,3258.535,3213.375,0,98.62002,,
	08/02/2022 11:28:10.350,1.19835e+06,3163.87,83.00,6.00,-0.001060128,2.499974,-0.00265029,0.0009447422,0.0009315319,0.003098203,0.002709879,3208.393,3163.457,0,98.6017,,
	08/02/2022 13:13:07.962,1.20465e+06,3130.59,84.00,6.00,-0.001060165,2.49997,-0.00265038,0.0009324509,0.000921707,0.003058981,0.002680029,3166.607,3130.171,0,98.84777,,
	08/02/2022 14:57:19.150,1.2109e+06,3109.41,85.00,6.00,-0.001059852,2.49999,-0.00264962,0.0009250098,0.0009153166,0.003034833,0.00266159,3141.346,3108.986,0,98.95209,,
	08/02/2022 16:40:47.523,1.21711e+06,3085.39,86.00,6.00,-0.001059851,2.49998,-0.00264961,0.000919462,0.0009082509,0.003016553,0.002641458,3122.515,3084.984,0,98.78069,,
	08/02/2022 18:23:34.872,1.22328e+06,3064.38,87.00,6.00,-0.001060151,2.499993,-0.00265037,0.0009135712,0.0009020984,0.002997296,0.002623753,3102.483,3064.004,0,98.74418,,
	08/02/2022 20:05:30.012,1.22939e+06,3040.03,88.00,6.00,-0.001060121,2.499978,-0.00265028,0.0009053535,0.0008950031,0.002970448,0.002602838,3074.595,3039.658,0,98.85675,,
	08/02/2022 21:46:42.590,1.23547e+06,3019,89.00,6.00,-0.001060102,2.49999,-0.00265024,0.000899018,0.000888926,0.002949837,0.002585792,3053.078,3018.621,0,98.87743,,
	08/02/2022 23:27:25.277,1.24151e+06,3005.98,90.00,6.00,-0.001060174,2.499984,-0.00265042,0.0008940503,0.0008850645,0.002933266,0.002574638,3036.257,3005.587,0,98.99493,,
	08/03/2022 01:07:30.101,1.24751e+06,2985.87,91.00,6.00,-0.001060153,2.499995,-0.00265038,0.0008888167,0.000879151,0.002916219,0.00255715,3018.511,2985.458,0,98.91253,,
	08/03/2022 02:46:42.093,1.25346e+06,2957.2,92.00,6.00,-0.001059863,2.49998,-0.00264964,0.0008817224,0.0008706677,0.00289322,0.002531892,2994.37,2956.787,0,98.74625,,
	08/03/2022 04:25:09.711,1.25937e+06,2937.54,93.00,6.00,-0.001059837,2.49999,-0.00264958,0.0008744488,0.0008648415,0.002869434,0.002514996,2969.675,2937.123,0,98.90132,,
	08/03/2022 06:03:01.365,1.26524e+06,2921.98,94.00,6.00,-0.001059883,2.49998,-0.00264969,0.0008684285,0.0008602258,0.002849971,0.002501568,2949.238,2921.589,0,99.05545,,
	08/03/2022 07:40:16.390,1.27108e+06,2899.74,95.00,6.00,-0.001060165,2.499997,-0.00265041,0.0008641877,0.000853686,0.002835982,0.002482833,2934.825,2899.358,0,98.78478,,
	08/03/2022 09:16:54.341,1.27688e+06,2883.37,96.00,6.00,-0.001059832,2.499978,-0.00264956,0.0008581122,0.000848843,0.002816163,0.002468785,2914.111,2883.001,0,98.91982,,
	08/03/2022 10:52:50.715,1.28263e+06,2862.09,97.00,6.00,-0.001059828,2.49999,-0.00264956,0.0008521192,0.0008426431,0.002796617,0.00245039,2893.831,2861.729,0,98.88794,,
	08/03/2022 12:28:16.004,1.28836e+06,2849.28,98.00,6.00,-0.001060144,2.499974,-0.00265033,0.0008467195,0.0008389394,0.002779104,0.002439969,2875.547,2848.919,0,99.08116,,
	08/03/2022 14:03:23.320,1.29407e+06,2837.99,99.00,6.00,-0.001060122,2.499997,-0.0026503,0.0008447484,0.0008356264,0.002772142,0.002430983,2868.874,2837.644,0,98.92016,,
	08/03/2022 15:37:57.704,1.29974e+06,2820.99,100.00,6.00,-0.001060142,2.499988,-0.00265034,0.0008400754,0.0008306241,0.002756703,0.002416526,2852.971,2820.645,0,98.87495,,
	08/03/2022 17:11:44.267,1.30537e+06,2795.5,101.00,6.00,-0.001059847,2.499999,-0.00264962,0.0008335126,0.0008229803,0.002735374,0.00239385,2830.636,2795.141,0,98.7364,,
	08/03/2022 18:44:36.878,1.31094e+06,2773.04,102.00,6.00,-0.001059844,2.499993,-0.0026496,0.0008242307,0.0008163673,0.002705426,0.002373831,2799.145,2772.684,0,99.04597,,
	08/03/2022 20:17:03.248,1.31649e+06,2760.45,103.00,6.00,-0.001059855,2.499984,-0.00264962,0.0008202207,0.0008126621,0.002692362,0.002362758,2785.512,2760.079,0,99.07846,,
	08/03/2022 21:48:54.225,1.322e+06,2739.83,104.00,6.00,-0.001060163,2.499997,-0.0026504,0.0008158623,0.0008066705,0.002678295,0.00234549,2770.74,2739.472,0,98.87336,,
	08/03/2022 23:20:19.458,1.32748e+06,2728.47,105.00,6.00,-0.001060131,2.49999,-0.00265032,0.0008116326,0.0008033675,0.002664222,0.002336676,2756.388,2728.087,0,98.98167,,
	08/04/2022 00:51:34.213,1.33296e+06,2725.71,106.00,6.00,-0.001059821,2.499986,-0.00264954,0.0008093419,0.0008025536,0.002656278,0.002334867,2748.638,2725.353,0,99.16125,,
	08/04/2022 02:22:34.650,1.33842e+06,2715.75,107.00,6.00,-0.001060188,2.499988,-0.00265046,0.0008080509,0.0007996077,0.0026517,0.002326717,2744.282,2715.378,0,98.95512,,
	08/04/2022 03:52:46.467,1.34383e+06,2690.46,108.00,6.00,-0.001059866,2.499993,-0.00264966,0.0008012069,0.0007921099,0.00262947,0.002304049,2720.982,2690.084,0,98.86459,,
	08/04/2022 05:22:10.032,1.34919e+06,2667.11,109.00,6.00,-0.001059812,2.499982,-0.00264951,0.0007938602,0.0007851844,0.002605911,0.002283236,2696.059,2666.74,0,98.90714,,
	08/04/2022 06:50:51.937,1.35451e+06,2646.87,110.00,6.00,-0.001060163,2.499999,-0.00265041,0.0007875722,0.0007792962,0.002585586,0.002265684,2674.656,2646.504,0,98.94917,,
	08/04/2022 08:19:00.245,1.3598e+06,2631.13,111.00,6.00,-0.00105986,2.499997,-0.00264965,0.0007823135,0.0007745919,0.002568489,0.002251938,2656.807,2630.778,0,99.01299,,
	08/04/2022 09:46:36.929,1.36506e+06,2615.56,112.00,6.00,-0.001060147,2.499988,-0.00265035,0.000777579,0.0007701247,0.002553103,0.002238769,2640.736,2615.202,0,99.04134,,
	08/04/2022 11:13:48.878,1.37029e+06,2602.04,113.00,6.00,-0.001060097,2.49999,-0.00265023,0.0007742794,0.0007661374,0.002542232,0.002227742,2629.535,2601.685,0,98.94846,,
	08/04/2022 12:40:50.091,1.37551e+06,2601.28,114.00,6.00,-0.001060136,2.499997,-0.00265034,0.0007713427,0.0007659136,0.002532272,0.002227365,2619.563,2600.911,0,99.29615,,
	08/04/2022 14:07:32.700,1.38072e+06,2587.2,115.00,6.00,-0.001059855,2.499997,-0.00264963,0.0007700205,0.0007617243,0.002527724,0.002215303,2615.054,2586.85,0,98.92259,,
	08/04/2022 15:33:40.235,1.38588e+06,2570.54,116.00,6.00,-0.001059835,2.499991,-0.00264958,0.0007645862,0.0007568125,0.002510084,0.002200697,2596.608,2570.146,0,98.98328,,
	08/04/2022 16:59:19.581,1.39102e+06,2557.07,117.00,6.00,-0.001059849,2.49999,-0.00264961,0.0007602564,0.00075285,0.002496028,0.002189166,2581.895,2556.727,0,99.0258,,
	08/04/2022 18:24:36.226,1.39614e+06,2546.04,118.00,6.00,-0.001060156,2.499993,-0.00265038,0.0007568151,0.0007496211,0.002484542,0.002180086,2570.251,2545.676,0,99.04944,,
	08/04/2022 19:49:27.980,1.40123e+06,2533.6,119.00,6.00,-0.001060142,2.499978,-0.00265033,0.0007531511,0.000745995,0.002472583,0.002169508,2557.755,2533.266,0,99.04984,,
	08/04/2022 21:13:54.235,1.4063e+06,2520.59,120.00,6.00,-0.001059879,2.499997,-0.00264969,0.0007494734,0.0007421373,0.002460541,0.002158126,2545.302,2520.26,0,99.02116,,
	08/04/2022 22:37:52.313,1.41134e+06,2507.57,121.00,6.00,-0.001060128,2.499995,-0.00265031,0.0007449994,0.0007382847,0.00244595,0.002146594,2530.108,2507.24,0,99.09869,,
	08/05/2022 00:01:16.670,1.41634e+06,2488.37,122.00,6.00,-0.001060124,2.499978,-0.00265029,0.0007407387,0.0007326216,0.002432145,0.002129774,2515.594,2488.08,0,98.90418,,
	08/05/2022 01:24:06.507,1.42131e+06,2472.95,123.00,6.00,-0.001059851,2.499995,-0.00264962,0.0007351111,0.0007279847,0.002413902,0.002116023,2496.481,2472.642,0,99.03056,,
	08/05/2022 02:46:22.417,1.42625e+06,2455.12,124.00,6.00,-0.001059856,2.499986,-0.00264963,0.000730363,0.0007227387,0.002398527,0.002100482,2480.407,2454.815,0,98.95609,,
	08/05/2022 04:08:09.283,1.43115e+06,2443.56,125.00,6.00,-0.001060147,2.49999,-0.00265036,0.0007252299,0.0007193341,0.002381893,0.002090283,2462.9,2443.249,0,99.18704,,
	08/05/2022 05:29:35.100,1.43604e+06,2431.12,126.00,6.00,-0.001060149,2.499986,-0.00265036,0.0007226937,0.0007157645,0.002373636,0.002079996,2454.313,2430.805,0,99.0412,,
	08/05/2022 06:50:32.995,1.4409e+06,2418.13,127.00,6.00,-0.00105987,2.499999,-0.00264967,0.0007183027,0.0007119203,0.002359239,0.002068712,2439.371,2417.821,0,99.11146,,
	08/05/2022 08:11:09.772,1.44573e+06,2406.69,128.00,6.00,-0.001059842,2.499988,-0.00264959,0.0007154411,0.0007085932,0.002349886,0.002059219,2429.702,2406.372,0,99.04284,,
	08/05/2022 09:31:21.672,1.45054e+06,2394.54,129.00,6.00,-0.001059875,2.499999,-0.00264969,0.000711703,0.0007049811,0.002337448,0.002048637,2416.957,2394.218,0,99.05552,,
	08/05/2022 10:51:11.443,1.45533e+06,2384.15,130.00,6.00,-0.001060156,2.49999,-0.00265038,0.0007082566,0.0007019872,0.002326391,0.0020398,2405.259,2383.837,0,99.11482,,
	08/05/2022 12:10:36.832,1.4601e+06,2370.72,131.00,6.00,-0.001060117,2.499993,-0.00265029,0.0007050254,0.0006980215,0.002315841,0.002028475,2394.296,2370.404,0,99.00657,,
	08/05/2022 13:29:54.506,1.46486e+06,2369.72,132.00,6.00,-0.001060082,2.499982,-0.00265019,0.0007030578,0.0006977208,0.002309039,0.002028276,2387.589,2369.405,0,99.24089,,
	08/05/2022 14:49:07.745,1.46961e+06,2367.4,133.00,6.00,-0.001060069,2.499986,-0.00265016,0.0007024211,0.0006970356,0.002306621,0.002026596,2385.48,2367.09,0,99.23331,,
	08/05/2022 16:08:12.374,1.47436e+06,2361.93,134.00,6.00,-0.001060117,2.499999,-0.00265029,0.0007014995,0.0006954193,0.002303441,0.00202202,2382.336,2361.607,0,99.13325,,
	08/05/2022 17:27:02.904,1.47909e+06,2354.28,135.00,6.00,-0.00106014,2.499986,-0.00265034,0.000699601,0.0006931761,0.002297034,0.002015744,2375.886,2353.961,0,99.08163,,
	08/05/2022 18:45:33.681,1.4838e+06,2343.9,136.00,6.00,-0.0010601,2.499986,-0.00265024,0.0006968388,0.0006901192,0.00228787,0.002006955,2366.524,2343.589,0,99.03571,,
	08/05/2022 20:03:41.159,1.48848e+06,2333.02,137.00,6.00,-0.001060083,2.49999,-0.0026502,0.0006931771,0.0006869293,0.002275873,0.001997686,2354.089,2332.709,0,99.09867,,
	08/05/2022 21:21:26.022,1.49315e+06,2321.53,138.00,6.00,-0.001060124,2.49999,-0.0026503,0.0006899046,0.0006835523,0.002265202,0.001987569,2342.962,2321.244,0,99.07925,,
	08/05/2022 22:38:45.059,1.49779e+06,2308.08,139.00,6.00,-0.001060082,2.499978,-0.00265018,0.0006862604,0.0006795818,0.002253356,0.001975855,2330.557,2307.768,0,99.02682,,
	08/05/2022 23:55:36.945,1.5024e+06,2295.53,140.00,6.00,-0.001060126,2.49999,-0.0026503,0.0006819596,0.0006759107,0.002239318,0.001964914,2315.964,2295.258,0,99.11301,,
	08/06/2022 01:11:58.831,1.50698e+06,2278.74,141.00,6.00,-0.001060098,2.499991,-0.00265024,0.0006780927,0.0006709535,0.002226851,0.001950211,2302.805,2278.452,0,98.94717,,
	08/06/2022 02:27:49.052,1.51153e+06,2263.82,142.00,6.00,-0.001060117,2.499993,-0.00265029,0.0006731492,0.0006665639,0.002210787,0.001937131,2286.061,2263.527,0,99.02172,,
	08/06/2022 03:43:11.711,1.51605e+06,2251.22,143.00,6.00,-0.001060135,2.499988,-0.00265032,0.0006687578,0.0006628412,0.002196521,0.001926059,2271.128,2250.918,0,99.11528,,
	08/06/2022 04:58:10.045,1.52055e+06,2239.62,144.00,6.00,-0.001059833,2.499995,-0.00264958,0.0006649978,0.0006594211,0.002184358,0.001915843,2258.372,2239.303,0,99.16139,,
	08/06/2022 06:12:47.565,1.52503e+06,2229.69,145.00,6.00,-0.001060155,2.499997,-0.00265038,0.0006617908,0.0006564579,0.00217396,0.001906932,2247.489,2229.399,0,99.19417,,
	08/06/2022 07:27:02.997,1.52949e+06,2217.3,146.00,6.00,-0.001060158,2.499961,-0.00265035,0.0006589421,0.0006528666,0.002164738,0.001896546,2237.771,2217.034,0,99.07799,,
	08/06/2022 08:40:52.456,1.53392e+06,2205,147.00,6.00,-0.00105988,2.499986,-0.00264969,0.0006549179,0.0006491766,0.002151626,0.001885391,2224.073,2204.726,0,99.12336,,
	08/06/2022 09:54:17.307,1.53832e+06,2192,148.00,6.00,-0.001060151,2.499967,-0.00265034,0.0006514856,0.0006454166,0.002140588,0.001874364,2212.481,2191.726,0,99.06844,,
	08/06/2022 11:07:19.468,1.5427e+06,2180.16,149.00,6.00,-0.001060169,2.499993,-0.00265042,0.0006483156,0.0006419276,0.002130223,0.001864143,2201.65,2179.874,0,99.01469,,
	08/06/2022 12:19:59.569,1.54706e+06,2171.02,150.00,6.00,-0.001060114,2.499993,-0.00265028,0.0006445051,0.0006392195,0.002117729,0.001856289,2188.76,2170.706,0,99.1799,,
	08/06/2022 13:32:31.486,1.55141e+06,2168.65,151.00,6.00,-0.001060107,2.499995,-0.00265026,0.0006428019,0.0006385311,0.002111993,0.001854564,2182.962,2168.368,0,99.33559,,
	08/06/2022 14:45:00.852,1.55576e+06,2166.39,152.00,6.00,-0.001060125,2.499991,-0.0026503,0.0006427042,0.0006378653,0.002111491,0.001852952,2182.639,2166.115,0,99.2471,,
	08/06/2022 15:57:27.536,1.56011e+06,2164.59,153.00,6.00,-0.001060077,2.499991,-0.00265018,0.00064244,0.0006373438,0.002110341,0.001851915,2181.725,2164.329,0,99.20675,,
	08/06/2022 17:09:50.530,1.56445e+06,2163.59,154.00,6.00,-0.001060072,2.49999,-0.00265017,0.0006416321,0.0006370295,0.002107431,0.001851442,2179.018,2163.309,0,99.28268,,
	08/06/2022 18:22:04.469,1.56879e+06,2158.2,155.00,6.00,-0.001060049,2.499988,-0.00265011,0.0006405675,0.0006354409,0.002103886,0.001846769,2175.397,2157.912,0,99.19968,,
	08/06/2022 19:33:58.546,1.5731e+06,2145.08,156.00,6.00,-0.001060092,2.499993,-0.00265022,0.0006385728,0.0006315741,0.002097269,0.001835534,2168.655,2144.801,0,98.90401,,
	08/06/2022 20:45:30.388,1.57739e+06,2137.56,157.00,6.00,-0.001060091,2.499993,-0.00265022,0.0006342492,0.0006293611,0.002083095,0.001828939,2153.973,2137.251,0,99.22929,,
	08/06/2022 21:56:44.164,1.58167e+06,2127.89,158.00,6.00,-0.001060094,2.499988,-0.00265022,0.0006317772,0.0006265196,0.002075079,0.001820322,2145.502,2127.588,0,99.16781,,
	08/06/2022 23:07:34.808,1.58592e+06,2115.64,159.00,6.00,-0.00106007,2.499995,-0.00265017,0.0006285676,0.0006229145,0.002064673,0.001809621,2134.616,2115.328,0,99.10064,,
	08/07/2022 00:18:01.086,1.59014e+06,2103.69,160.00,6.00,-0.001060128,2.499988,-0.00265031,0.000624926,0.0006194023,0.002052901,0.00179925,2122.226,2103.386,0,99.11611,,
	08/07/2022 01:28:03.031,1.59435e+06,2091.42,161.00,6.00,-0.001060075,2.499997,-0.00265018,0.0006213786,0.0006157846,0.002041366,0.001788481,2110.188,2091.118,0,99.09975,,
	08/07/2022 02:37:44.995,1.59853e+06,2083.35,162.00,6.00,-0.001060139,2.499984,-0.00265033,0.0006178687,0.0006134105,0.002030018,0.001781208,2098.248,2083.073,0,99.27844,,
	08/07/2022 03:47:07.499,1.60269e+06,2071.7,163.00,6.00,-0.001060103,2.499991,-0.00265025,0.000615574,0.0006099778,0.002022595,0.001771281,2090.444,2071.372,0,99.0909,,
	08/07/2022 04:56:11.423,1.60683e+06,2064.24,164.00,6.00,-0.00106016,2.499991,-0.00265039,0.000612289,0.0006077793,0.00201191,0.001764548,2079.343,2063.905,0,99.26347,,
	08/07/2022 06:04:58.981,1.61096e+06,2055.3,165.00,6.00,-0.00106014,2.49997,-0.00265032,0.0006100984,0.000605135,0.002004793,0.001756755,2071.891,2054.963,0,99.18645,,
	08/07/2022 07:13:25.530,1.61507e+06,2043.18,166.00,6.00,-0.001060136,2.49999,-0.00265033,0.0006074865,0.0006015389,0.001996275,0.001746262,2062.979,2042.878,0,99.02095,,
	08/07/2022 08:21:32.612,1.61916e+06,2036.59,167.00,6.00,-0.001060138,2.499988,-0.00265033,0.000603712,0.0005996425,0.001983915,0.001740585,2050.139,2036.306,0,99.32592,,
	08/07/2022 09:29:18.515,1.62322e+06,2023.22,168.00,6.00,-0.00106014,2.499997,-0.00265035,0.0006014101,0.0005957073,0.001976574,0.001728834,2042.343,2022.917,0,99.05177,,
	08/07/2022 10:36:44.102,1.62727e+06,2014.55,169.00,6.00,-0.001060184,2.49999,-0.00265045,0.0005979703,0.0005931422,0.001965349,0.001721313,2030.685,2014.248,0,99.19257,,
	08/07/2022 11:43:54.136,1.6313e+06,2006.87,170.00,6.00,-0.001060124,2.499976,-0.00265028,0.0005956371,0.0005908933,0.001957764,0.001714601,2022.823,2006.563,0,99.20358,,
	08/07/2022 12:50:52.517,1.63532e+06,2001.19,171.00,6.00,-0.001060147,2.499978,-0.00265034,0.0005938589,0.0005892026,0.001951895,0.001709967,2016.773,2000.87,0,99.21593,,
	08/07/2022 13:57:43.959,1.63933e+06,1997.81,172.00,6.00,-0.001060147,2.49999,-0.00265036,0.0005928449,0.0005882081,0.00194841,0.001707348,2013.31,1997.495,0,99.21789,,
	08/07/2022 15:04:32.864,1.64334e+06,1997.74,173.00,6.00,-0.001060107,2.499982,-0.00265025,0.0005920846,0.0005881975,0.001945664,0.001707657,2010.764,1997.43,0,99.34348,,
	08/07/2022 16:11:15.894,1.64734e+06,1993.02,174.00,6.00,-0.001060125,2.499999,-0.00265031,0.000591734,0.0005868,0.00194439,0.001703724,2009.589,1992.694,0,99.16618,,
	08/07/2022 17:17:47.474,1.65133e+06,1987.5,175.00,6.00,-0.001060091,2.499999,-0.00265023,0.0005899936,0.0005851707,0.001938583,0.001699128,2003.661,1987.165,0,99.18255,,
	08/07/2022 18:24:04.324,1.65531e+06,1980.07,176.00,6.00,-0.00106014,2.499997,-0.00265035,0.0005878491,0.0005829944,0.001931543,0.001692623,1996.376,1979.74,0,99.17416,,
	08/07/2022 19:30:03.311,1.65927e+06,1971.18,177.00,6.00,-0.001060155,2.499993,-0.00265038,0.0005852414,0.0005803661,0.00192304,0.001684867,1987.469,1970.829,0,99.16695,,
	08/07/2022 20:35:47.564,1.66321e+06,1964.68,178.00,6.00,-0.001060149,2.499999,-0.00265037,0.0005827827,0.0005784483,0.001915037,0.001679186,1979.155,1964.37,0,99.25625,,
	08/07/2022 21:41:18.360,1.66714e+06,1956.69,179.00,6.00,-0.001060135,2.499988,-0.00265032,0.0005811532,0.0005761096,0.001909645,0.001672351,1973.642,1956.385,0,99.13213,,
	08/07/2022 22:46:33.974,1.67106e+06,1950.75,180.00,6.00,-0.001060128,2.499991,-0.00265031,0.0005784674,0.000574349,0.001900875,0.001667168,1964.482,1950.425,0,99.28804,,
	08/07/2022 23:51:32.855,1.67496e+06,1940.78,181.00,6.00,-0.001060161,2.499997,-0.0026504,0.0005764774,0.0005714158,0.001894452,0.001658448,1957.713,1940.431,0,99.12197,,
	08/08/2022 00:56:12.065,1.67883e+06,1931.34,182.00,6.00,-0.001060191,2.499991,-0.00265047,0.0005734657,0.0005685792,0.00188467,0.001649969,1947.467,1930.979,0,99.1479,,
	08/08/2022 02:00:31.963,1.68269e+06,1921.79,183.00,6.00,-0.001060114,2.499991,-0.00265028,0.0005705784,0.0005658446,0.001875257,0.001641919,1937.724,1921.529,0,99.17034,,
	08/08/2022 03:04:35.291,1.68654e+06,1914.83,184.00,6.00,-0.001060086,2.499999,-0.00265021,0.0005677604,0.0005637654,0.00186613,0.001635633,1928.117,1914.501,0,99.29635,,
	08/08/2022 04:08:23.930,1.69037e+06,1906.56,185.00,6.00,-0.001060165,2.499978,-0.00265039,0.0005658945,0.0005613299,0.001860072,0.001628409,1921.717,1906.261,0,99.1934,,
	08/08/2022 05:11:53.514,1.69418e+06,1895.8,186.00,6.00,-0.001060153,2.499993,-0.00265038,0.0005634233,0.0005581704,0.001852014,0.001619111,1913.387,1895.505,0,99.06769,,
	08/08/2022 06:15:08.027,1.69797e+06,1891.78,187.00,6.00,-0.001059856,2.49999,-0.00264963,0.0005601791,0.0005569609,0.001841435,0.001615393,1902.352,1891.434,0,99.42551,,
	08/08/2022 07:18:08.662,1.70175e+06,1881.74,188.00,6.00,-0.00105986,2.499999,-0.00264965,0.0005590412,0.0005539952,0.001837707,0.001606648,1898.507,1881.394,0,99.09737,,
	08/08/2022 08:20:53.007,1.70552e+06,1876.01,189.00,6.00,-0.001060156,2.499999,-0.00265039,0.0005559437,0.0005522856,0.001827703,0.001601551,1887.946,1875.667,0,99.34201,,
	08/08/2022 09:23:28.795,1.70927e+06,1870.07,190.00,6.00,-0.001060124,2.499991,-0.0026503,0.0005551895,0.0005505866,0.001825074,0.001596726,1885.368,1869.768,0,99.17092,,
	08/08/2022 10:25:48.489,1.71301e+06,1863.22,191.00,6.00,-0.001060138,2.49999,-0.00265033,0.0005524667,0.0005485922,0.001816284,0.00159074,1876.141,1862.913,0,99.29868,,
	08/08/2022 11:28:00.606,1.71674e+06,1859.13,192.00,6.00,-0.001060086,2.499982,-0.0026502,0.0005514227,0.000547366,0.001812859,0.001587473,1872.631,1858.768,0,99.26433,,
	08/08/2022 12:30:10.623,1.72047e+06,1858.69,193.00,6.00,-0.00106013,2.499988,-0.00265031,0.0005509281,0.0005472579,0.001811055,0.001587395,1870.957,1858.419,0,99.33381,,
	08/08/2022 13:32:20.572,1.7242e+06,1858.05,194.00,6.00,-0.00106013,2.499988,-0.00265031,0.0005510724,0.0005470518,0.001811316,0.001587106,1871.487,1857.709,0,99.27039,,
	08/08/2022 14:34:26.854,1.72793e+06,1856.5,195.00,6.00,-0.001060121,2.499995,-0.0026503,0.0005504646,0.0005466058,0.001809168,0.001586013,1869.416,1856.205,0,99.299,,
	08/08/2022 15:36:21.420,1.73164e+06,1849.91,196.00,6.00,-0.001060138,2.49999,-0.00265033,0.0005489807,0.0005446677,0.001804273,0.001580093,1864.312,1849.614,0,99.21437,,
	08/08/2022 16:38:02.530,1.73535e+06,1842.96,197.00,6.00,-0.001060097,2.499997,-0.00265024,0.0005470504,0.0005426219,0.001798008,0.001574235,1857.834,1842.695,0,99.19047,,
	08/08/2022 17:39:35.737,1.73904e+06,1840.47,198.00,6.00,-0.001060102,2.499997,-0.00265025,0.0005454478,0.0005418517,0.001792685,0.001572174,1852.344,1840.111,0,99.34071,,
	08/08/2022 18:41:04.828,1.74273e+06,1838.29,199.00,6.00,-0.001060117,2.499984,-0.00265028,0.0005448821,0.0005412235,0.001790784,0.001570447,1850.406,1837.97,0,99.32854,,
	08/08/2022 19:42:24.355,1.74641e+06,1832.15,200.00,6.00,-0.001060133,2.499995,-0.00265033,0.000543882,0.0005394239,0.001787429,0.001565092,1846.998,1831.812,0,99.18031,,