File: Cell-test-data/SiMP-LFP-SF1/JB1_SiMP-LFP-SF1_Channel_71_StatisticByCycle.CSV
Date_Time                    ,Test Time (s),Step Time (s),Cycle Index,Step Index,Current (A),Voltage (V),Power (W),Charge Capacity (Ah),Discharge Capacity (Ah),Charge Energy (Wh),Discharge Energy (Wh),Charge Time (s),Discharge Time (s),V_Max_On_Cycle (V),Coulombic Efficiency (%),mAh/g
	08/06/2022 14:35:03.075,175275,60290.7,1,3,-0.0001589949,2.499987,-0.000397485,0.003169812,0.002662391,0.0105325,0.007892452,71773.61,60281.66,0,83.99207,,
	08/09/2022 07:41:49.012,409681,56434.1,3,3,-0.0001590044,2.499928,-0.0003975,0.002599504,0.002492047,0.008375336,0.007360893,58859.09,56425.67,0,95.86623,,
	08/09/2022 15:57:53.550,439445,7134.03,5,6,-0.001059994,2.499994,-0.00264998,0.002159783,0.002100336,0.007053053,0.006098742,7335.735,7132.995,0,97.24754,,
	08/09/2022 23:44:20.003,467432,6831.13,7,6,-0.001060012,2.499992,-0.00265002,0.002063376,0.002011172,0.006735696,0.005839223,7008.267,6830.16,0,97.46997,,
	08/10/2022 07:11:14.519,494246.426,6555.44,9,6,-0.001060091,2.5,-0.00265023,0.001976434,0.001930089,0.006454647,0.00560134,6712.898,6554.502,0,97.65511,,
	08/10/2022 14:22:01.865,520094,6351.75,11,6,-0.001060044,2.499989,-0.0026501,0.001908679,0.001869999,0.006234296,0.005430491,6482.627,6350.823,0,97.9735,,
	08/10/2022 21:20:33.364,545205,6162.71,13,6,-0.001060008,2.5,-0.00265002,0.001853081,0.001814305,0.006050504,0.005271887,6293.73,6161.786,0,97.90747,,
	08/11/2022 04:06:10.352,569542,5967.926,15,6,-0.001060042,2.5,-0.002650105,0.001795113,0.001757025,0.005861887,0.005105622,6096.73,5967.079,0,97.87826,,
	08/11/2022 10:37:24.484,593016,5753.79,17,6,-0.001060044,2.499998,-0.00265011,0.001729069,0.001694027,0.005650581,0.0049185,5872.732,5752.941,0,97.97337,,
	08/11/2022 16:58:02.004,615854,5623.64,19,6,-0.001059973,2.499998,-0.00264993,0.001688036,0.001655597,0.0055151,0.004812367,5733.237,5622.816,0,98.07824,,
	08/11/2022 23:08:54.917,638106.824,5467.98,21,6,-0.001060052,2.5,-0.00265013,0.001641813,0.001609818,0.005364406,0.004680061,5576.227,5467.192,0,98.05126,,
	08/12/2022 05:07:51.059,659643,5287.93,23,6,-0.001060096,2.499994,-0.00265023,0.001586489,0.001556904,0.005187406,0.004522949,5388.471,5287.185,0,98.13519,,
	08/12/2022 10:55:58.194,680530,5140.65,25,6,-0.001060043,2.499987,-0.00265009,0.001540072,0.001513523,0.005038174,0.00439583,5230.822,5139.882,0,98.27611,,
	08/12/2022 16:36:48.492,700980,5048.88,27,6,-0.001059963,2.499992,-0.0026499,0.001511936,0.001486362,0.004944164,0.004322208,5135.125,5048.125,0,98.30849,,
	08/12/2022 22:10:27.152,720999,4930.39,29,6,-0.001060005,2.499998,-0.00265001,0.001476744,0.001451496,0.004829003,0.004221725,5015.628,4929.671,0,98.2903,,
	08/13/2022 03:35:12.078,740484,4795.42,31,6,-0.001059994,2.499954,-0.00264994,0.00143588,0.001411791,0.004697433,0.004104502,4876.708,4794.671,0,98.3224,,
	08/13/2022 08:51:05.622,759438,4663.04,33,6,-0.001060111,2.499977,-0.00265025,0.001396902,0.001372886,0.004571857,0.003989244,4744.477,4662.349,0,98.28081,,
	08/13/2022 13:59:43.821,777956,4578.46,35,6,-0.001059964,2.499971,-0.00264988,0.001368733,0.00134788,0.004479927,0.003919649,4648.732,4577.771,0,98.47652,,
	08/13/2022 19:02:05.900,796098,4468.33,37,6,-0.001060035,2.5,-0.00265009,0.001336749,0.001315541,0.004376107,0.0038242,4540.074,4467.681,0,98.41348,,
	08/13/2022 23:57:25.265,813817,4373.38,39,6,-0.001060088,2.499971,-0.00265019,0.001307513,0.001287547,0.00428115,0.003743,4440.77,4372.711,0,98.47292,,
	08/14/2022 04:46:04.096,831136,4270.76,41,6,-0.001060043,2.5,-0.00265011,0.001276872,0.00125739,0.004182152,0.003654276,4336.66,4270.136,0,98.47424,,
	08/14/2022 09:28:10.795,848063,4176.57,43,6,-0.001060017,2.49999,-0.00265003,0.001247934,0.001229617,0.00408862,0.00357284,4238.464,4175.933,0,98.53219,,
	08/14/2022 14:05:09.008,864681,4103.07,45,6,-0.001060127,2.499985,-0.0026503,0.001227184,0.001208015,0.004020074,0.003511161,4168.036,4102.462,0,98.43803,,
	08/14/2022 18:35:28.660,880901,4006.29,47,6,-0.001060121,2.5,-0.0026503,0.001195638,0.001179519,0.003919323,0.003426414,4060.994,4005.685,0,98.65186,,
	08/14/2022 23:01:47.374,896879,3955.25,49,6,-0.001060017,2.499987,-0.00265003,0.001180483,0.001164475,0.003868362,0.003385368,4009.426,3954.659,0,98.64392,,
	08/15/2022 03:23:43.261,912595.168,3881.17,51,6,-0.00106011,2.499987,-0.00265026,0.001159599,0.001142623,0.003800079,0.003321814,3938.536,3880.579,0,98.53601,,
	08/15/2022 07:40:43.232,928015,3810.25,53,6,-0.00106001,2.49999,-0.00265001,0.001137691,0.001121744,0.003728852,0.003261055,3864.056,3809.669,0,98.59836,,
	08/15/2022 11:52:57.762,943150,3744.4,55,6,-0.00105995,2.499973,-0.00264985,0.001116764,0.001102318,0.003660892,0.003204737,3792.954,3743.842,0,98.70641,,
	08/15/2022 16:00:40.598,958013,3667.05,57,6,-0.001060037,2.5,-0.00265009,0.001095351,0.001079613,0.003591209,0.003137574,3720.183,3666.492,0,98.56319,,
	08/15/2022 20:03:10.535,972562,3597.26,59,6,-0.001059974,2.499996,-0.00264993,0.001072919,0.001059087,0.003518903,0.003077277,3644.01,3596.721,0,98.71085,,
	08/16/2022 00:02:32.125,986924.032,3558.35,61,6,-0.001060021,2.499992,-0.00265004,0.001060846,0.001047563,0.003478507,0.003045705,3603.056,3557.83,0,98.74789,,
	08/16/2022 03:58:50.952,1.0011e+06,3508.32,63,6,-0.001059979,2.5,-0.00264995,0.001046584,0.001032782,0.00343136,0.003003505,3554.573,3507.758,0,98.68118,,
	08/16/2022 07:51:26.240,1.01506e+06,3451.01,65,6,-0.001059911,2.499994,-0.00264977,0.001029631,0.001015957,0.00337596,0.002954571,3496.919,3450.516,0,98.67204,,
	08/16/2022 11:38:57.607,1028709.514,3367.101,67,6,-0.001060091,2.499987,-0.00265021,0.001004781,0.000991324,0.003296329,0.002880065,3412.68,3366.619,0,98.66074,,
	08/16/2022 15:21:33.319,1.04207e+06,3300.57,69,6,-0.001060047,2.49999,-0.00265011,0.0009844739,0.0009717544,0.003231112,0.002821877,3343.749,3300.045,0,98.70799,,
	08/16/2022 19:00:20.494,1.05519e+06,3253.01,71,6,-0.001059938,2.499996,-0.00264984,0.0009684044,0.0009576725,0.003178982,0.00278106,3289.173,3252.528,0,98.8918,,
	08/16/2022 22:37:13.398,1.06821e+06,3229.87,73,6,-0.001059893,2.499998,-0.00264973,0.0009613347,0.0009508272,0.003154609,0.00276324,3265.021,3229.385,0,98.90699,,
	08/17/2022 02:11:52.457,1.08108e+06,3189.29,75,6,-0.001059896,2.499996,-0.00264974,0.0009504429,0.0009388641,0.003118328,0.002729218,3228.067,3188.797,0,98.78175,,
	08/17/2022 05:43:36.538,1.09379e+06,3145.84,77,6,-0.001059934,2.499992,-0.00264983,0.0009374439,0.0009260615,0.003075699,0.002692206,3183.875,3145.365,0,98.7858,,
	08/17/2022 09:12:07.532,1.1063e+06,3092.74,79,6,-0.001059935,2.499989,-0.00264983,0.0009225258,0.0009104638,0.003027046,0.002646065,3133.219,3092.293,0,98.6925,,
	08/17/2022 12:37:03.963,1.1186e+06,3045.76,81,6,-0.001059936,2.499987,-0.00264983,0.0009072059,0.0008966153,0.002977486,0.002605405,3081.261,3045.306,0,98.83261,,
	08/17/2022 15:58:48.297,1.1307e+06,2993.38,83,6,-0.00106006,2.5,-0.00265015,0.0008923786,0.000881232,0.002929201,0.002559894,3030.957,2992.942,0,98.75091,,
	08/17/2022 19:15:58.172,1.14253e+06,2920.14,85,6,-0.001060141,2.499966,-0.00265032,0.0008707516,0.0008597698,0.002860545,0.002494499,2957.442,2919.725,0,98.73882,,
	08/17/2022 22:29:18.652,1.15413e+06,2874.69,87,6,-0.001060031,2.499992,-0.00265007,0.0008552548,0.0008463597,0.002810646,0.002454875,2904.847,2874.244,0,98.95995,,
	08/18/2022 01:39:59.736,1.16557e+06,2835.33,89,6,-0.001060007,2.499987,-0.00265,0.0008435544,0.0008347416,0.002772526,0.002421041,2865.135,2834.912,0,98.95528,,
	08/18/2022 04:48:15.588,1.17687e+06,2800.19,91,6,-0.00106007,2.499998,-0.00265017,0.0008332168,0.0008243825,0.002738692,0.00239096,2830.03,2799.756,0,98.93974,,
	08/18/2022 07:54:03.584,1.18802e+06,2762.24,93,6,-0.001060138,2.499989,-0.00265033,0.0008218556,0.0008132755,0.002701683,0.002358327,2791.27,2761.802,0,98.95601,,
	08/18/2022 10:57:30.920,1.19902e+06,2728.74,95,6,-0.001060141,2.499998,-0.00265035,0.0008119915,0.0008034089,0.002669532,0.002329503,2757.881,2728.364,0,98.94301,,
	08/18/2022 13:58:36.901,1.20989e+06,2693.65,97,6,-0.001060037,2.49999,-0.00265008,0.0008011297,0.0007930666,0.002634086,0.002299204,2720.955,2693.233,0,98.99353,,
	08/18/2022 16:57:27.729,1220619.636,2660.86,99,6,-0.001059954,2.499981,-0.00264986,0.000791457,0.0007833933,0.002602496,0.002271064,2688.099,2660.473,0,98.98116,,
	08/18/2022 19:54:12.084,1231223.991,2628.672,101,6,-0.00106003,2.499992,-0.00265007,0.0007822528,0.0007739668,0.002572317,0.002243517,2656.876,2628.313,0,98.94074,,
	08/18/2022 22:48:50.226,1.2417e+06,2598.36,103,6,-0.001060068,2.499994,-0.00265016,0.0007728452,0.0007649882,0.002541692,0.002217284,2624.958,2597.973,0,98.98338,,
	08/19/2022 01:41:22.911,1.25205e+06,2567.24,105,6,-0.001060121,2.5,-0.0026503,0.0007634834,0.0007558229,0.002511168,0.002190477,2593.209,2566.842,0,98.99664,,
	08/19/2022 04:31:55.306,1.26229e+06,2538.19,107,6,-0.00106013,2.499987,-0.00265031,0.0007545803,0.0007471898,0.002482112,0.002165142,2562.984,2537.804,0,99.02058,,
	08/19/2022 07:20:30.245,1.2724e+06,2508.74,109,6,-0.001060185,2.499998,-0.00265046,0.0007459782,0.0007384922,0.002454082,0.00213976,2533.704,2508.349,0,98.99649,,
	08/19/2022 10:07:08.737,1282400.644,2480.49,111,6,-0.001059906,2.499981,-0.00264974,0.0007373511,0.0007302332,0.002425895,0.00211561,2504.339,2480.153,0,99.03467,,
	08/19/2022 12:51:54.281,1.29229e+06,2453.25,113,6,-0.001060171,2.499975,-0.0026504,0.0007291504,0.0007223071,0.002399057,0.002092512,2476.521,2452.897,0,99.06145,,
	08/19/2022 15:34:57.372,1.30207e+06,2426.694,115,6,-0.00106008,2.499966,-0.00265016,0.0007215243,0.0007144593,0.002374119,0.002069616,2450.686,2426.31,0,99.02083,,
	08/19/2022 18:16:13.663,1.31175e+06,2400.63,117,6,-0.001060065,2.499975,-0.00265014,0.000713585,0.0007067989,0.002348199,0.002047168,2423.696,2400.29,0,99.04901,,
	08/19/2022 20:55:45.544,1.32132e+06,2375.97,119,6,-0.001060033,2.5,-0.00265008,0.0007057397,0.0006995614,0.002322379,0.002026041,2397.072,2375.641,0,99.12457,,
	08/19/2022 23:33:42.793,1.33079e+06,2350.95,121,6,-0.001060093,2.499992,-0.00265022,0.0006990406,0.0006921946,0.00230061,0.002004516,2374.312,2350.627,0,99.02066,,
	08/20/2022 02:09:57.479,1.34017e+06,2326.81,123,6,-0.001060089,2.499968,-0.00265019,0.0006913821,0.0006850822,0.002275601,0.001983633,2348.248,2326.463,0,99.0888,,
	08/20/2022 04:44:39.030,1.34945e+06,2304.51,125,6,-0.001060113,2.499987,-0.00265027,0.000684541,0.0006785066,0.002253233,0.001964506,2325.018,2304.216,0,99.11848,,
	08/20/2022 07:17:47.210,1.35864e+06,2280.12,127,6,-0.001060151,2.5,-0.00265038,0.0006774781,0.0006713324,0.002230106,0.00194355,2301.036,2279.779,0,99.09286,,
	08/20/2022 09:49:23.295,1.36774e+06,2258.3,129,6,-0.001060075,2.499989,-0.00265018,0.000670927,0.0006648579,0.002208668,0.001924586,2278.838,2257.934,0,99.09542,,
	08/20/2022 12:19:32.756,1.37674e+06,2236.45,131,6,-0.00105998,2.499973,-0.00264992,0.0006645769,0.0006584551,0.002188009,0.001905879,2257.167,2236.1,0,99.07885,,
	08/20/2022 14:48:12.025,1.38566e+06,2214.169,133,6,-0.001060165,2.499994,-0.00265041,0.0006577777,0.0006518469,0.002165714,0.00188649,2234.139,2213.832,0,99.09837,,
	08/20/2022 17:15:24.232,1.3945e+06,2192.54,135,6,-0.001060165,2.499996,-0.00265041,0.0006512754,0.0006455657,0.002144461,0.001868158,2211.972,2192.24,0,99.1233,,
	08/20/2022 19:41:16.205,1.40325e+06,2172.35,137,6,-0.001060199,2.499987,-0.00265048,0.0006453321,0.0006395986,0.002124944,0.001850686,2191.915,2172.039,0,99.11154,,
	08/20/2022 22:05:44.194,1.41192e+06,2153.55,139,6,-0.00106006,2.499994,-0.00265014,0.0006393598,0.0006340402,0.002105506,0.001834463,2171.637,2153.225,0,99.16798,,
	08/21/2022 00:28:58.155,1.42051e+06,2133.549,141,6,-0.001060186,2.5,-0.002650465,0.0006339955,0.0006281598,0.00208787,0.001817336,2153.296,2133.227,0,99.07954,,
	08/21/2022 02:50:51.461,1.42902e+06,2114.13,143,6,-0.001060157,2.499998,-0.00265039,0.0006277747,0.0006224267,0.002067502,0.001800536,2132.175,2113.844,0,99.1481,,
	08/21/2022 05:11:27.186,1437459.093,2094.93,145,6,-0.001060146,2.499977,-0.00265034,0.0006220585,0.0006167417,0.002048796,0.001783863,2112.852,2094.624,0,99.14529,,
	08/21/2022 07:30:47.068,1.44582e+06,2076.37,147,6,-0.001059848,2.499992,-0.00264961,0.0006164561,0.0006112119,0.002030496,0.001767702,2093.829,2076.061,0,99.14929,,
	08/21/2022 09:48:52.068,1454103.975,2058.17,149,6,-0.001060144,2.499987,-0.00265035,0.0006108668,0.0006059704,0.002012165,0.001752382,2074.823,2057.863,0,99.19846,,
	08/21/2022 12:05:49.189,1.46232e+06,2041.756,151,6,-0.001060147,2.499994,-0.00265036,0.0006060019,0.00060115,0.001996265,0.001738317,2058.339,2041.449,0,99.19936,,
	08/21/2022 14:21:42.870,1.47047e+06,2025.92,153,6,-0.001060118,2.49999,-0.00265028,0.0006015131,0.0005964935,0.001981532,0.00172472,2043.061,2025.61,0,99.1655,,
	08/21/2022 16:36:29.305,1.47856e+06,2009.09,155,6,-0.00106006,2.5,-0.00265015,0.0005964746,0.0005915095,0.001965032,0.00171018,2025.966,2008.768,0,99.16759,,
	08/21/2022 18:50:09.041,1.48658e+06,1992.54,157,6,-0.001060166,2.499989,-0.0026504,0.0005915297,0.0005866599,0.001948855,0.001695982,2009.121,1992.216,0,99.17675,,
	08/21/2022 21:02:45.069,1494536.976,1976.94,159,6,-0.001059888,2.499989,-0.00264971,0.000586729,0.0005820271,0.001933119,0.001682416,1992.779,1976.64,0,99.19862,,
	08/21/2022 23:14:14.654,1.50243e+06,1959.89,161,6,-0.001059804,2.499977,-0.00264949,0.0005817499,0.0005769611,0.001916796,0.001667629,1975.945,1959.578,0,99.17684,,
	08/22/2022 01:24:38.844,1.51025e+06,1944.18,163,6,-0.00105989,2.499996,-0.00264972,0.0005769458,0.0005723284,0.001901049,0.001654036,1959.624,1943.89,0,99.19967,,
	08/22/2022 03:34:01.426,1518013.333,1929.55,165,6,-0.001059897,2.499985,-0.00264973,0.0005723588,0.000567996,0.001886039,0.001641387,1944.069,1929.245,0,99.23775,,
	08/22/2022 05:42:25.088,1.52572e+06,1914.21,167,6,-0.001059859,2.499987,-0.00264963,0.0005680893,0.0005635225,0.001872053,0.001628287,1929.426,1913.955,0,99.19611,,
	08/22/2022 07:49:46.857,1.53336e+06,1898.998,169,6,-0.001059935,2.49999,-0.00264983,0.0005634663,0.0005590157,0.001856893,0.001615062,1913.787,1898.72,0,99.21014,,
	08/22/2022 09:56:07.948,1.54094e+06,1883.87,171,6,-0.001060165,2.499968,-0.00265038,0.0005590499,0.0005546028,0.00184244,0.001602209,1898.686,1883.596,0,99.20451,,
	08/22/2022 12:01:32.972,1.54846e+06,1870.04,173,6,-0.001060075,2.500008,-0.0026502,0.0005551079,0.0005505638,0.001829556,0.001590414,1885.425,1869.762,0,99.1814,,
	08/22/2022 14:06:01.811,1.55593e+06,1856.73,175,6,-0.001060114,2.499987,-0.00265027,0.0005509311,0.0005466479,0.00181579,0.001579012,1871.263,1856.42,0,99.22256,,
	08/22/2022 16:09:35.806,1.56335e+06,1842.61,177,6,-0.001060121,2.499994,-0.0026503,0.0005466454,0.0005425235,0.00180174,0.001566938,1856.679,1842.343,0,99.24596,,
	08/22/2022 18:12:12.833,1.5707e+06,1828.36,179,6,-0.001060107,2.499947,-0.00265021,0.0005424339,0.0005382884,0.001787954,0.001554583,1842.411,1828.066,0,99.23576,,
	08/22/2022 20:13:56.049,1.57801e+06,1815.13,181,6,-0.001059848,2.49999,-0.00264961,0.0005386607,0.000534418,0.001775524,0.001543238,1829.51,1814.898,0,99.21237,,
	08/22/2022 22:14:48.297,1.58526e+06,1803.02,183,6,-0.001060033,2.499992,-0.00265007,0.000534857,0.0005308166,0.001763063,0.001532757,1816.688,1802.714,0,99.24458,,
	08/23/2022 00:14:52.102,1.59246e+06,1789.77,185,6,-0.001059827,2.499994,-0.00264956,0.0005312997,0.0005269644,0.001751399,0.001521462,1804.485,1789.524,0,99.18402,,
	08/23/2022 02:14:03.907,1.59962e+06,1777.92,187,6,-0.00106011,2.499996,-0.00265027,0.0005275201,0.0005234437,0.001738986,0.001511222,1791.795,1777.637,0,99.22725,,
	08/23/2022 04:12:23.369,1.60672e+06,1764.4,189,6,-0.00106006,2.499987,-0.00265014,0.0005234787,0.0005194868,0.001725759,0.001499589,1777.945,1764.13,0,99.23742,,
	08/23/2022 06:09:53.668,1613765.575,1752.5,191,6,-0.001060125,2.499929,-0.00265024,0.0005199228,0.0005159038,0.001714077,0.001489081,1765.957,1752.249,0,99.22701,,
	08/23/2022 08:06:33.997,1.62077e+06,1740.026,193,6,-0.001060144,2.499983,-0.00265034,0.0005161079,0.0005123033,0.001701558,0.001478566,1752.962,1739.764,0,99.26284,,
	08/23/2022 10:02:25.866,1.62772e+06,1728.18,195,6,-0.001059849,2.499971,-0.00264959,0.0005127111,0.0005087793,0.001690392,0.001468272,1741.464,1727.912,0,99.23314,,
	08/23/2022 11:57:29.315,1.63462e+06,1716.722,197,6,-0.00106007,2.499994,-0.00265017,0.0005091507,0.0005054304,0.001678726,0.001458497,1729.293,1716.458,0,99.2693,,
	08/23/2022 13:51:50.622,1.64148e+06,1706.061,199,6,-0.001060102,2.499998,-0.00265025,0.000506049,0.0005022878,0.001668559,0.001449355,1718.82,1705.781,0,99.25676,,
	08/23/2022 15:45:26.761,1648298.668,1695.445,201,6,-0.001060096,2.499989,-0.00265023,0.0005026843,0.0004991781,0.001657415,0.001440206,1707.375,1695.197,0,99.30252,,
	08/23/2022 17:38:17.915,1.65507e+06,1683.73,203,6,-0.001060125,2.499971,-0.00265028,0.0004991117,0.0004957216,0.001645723,0.001430093,1695.217,1683.457,0,99.32079,,
	08/23/2022 19:30:26.793,1.6618e+06,1673.23,205,6,-0.001060133,2.499998,-0.00265033,0.000496206,0.0004926494,0.001636238,0.001421089,1685.362,1672.982,0,99.28323,,
	08/23/2022 21:21:53.608,1.66849e+06,1662.82,207,6,-0.001060125,2.499949,-0.00265026,0.0004931918,0.0004895557,0.001626337,0.001412083,1675.019,1662.538,0,99.26274,,
	08/23/2022 23:12:34.678,1.67513e+06,1650.79,209,6,-0.001060123,2.499989,-0.0026503,0.0004896406,0.000486031,0.001614674,0.001401745,1663.103,1650.52,0,99.26279,,
	08/24/2022 01:02:32.245,1.68172e+06,1640.26,211,6,-0.001059804,2.499987,-0.0026495,0.0004864951,0.0004828617,0.001604351,0.001392472,1652.395,1640.018,0,99.25316,,
	08/24/2022 02:51:45.431,1.68828e+06,1629.97,213,6,-0.001059899,2.499996,-0.00264974,0.0004832468,0.0004798513,0.001593715,0.001383664,1641.325,1629.693,0,99.29734,,
	08/24/2022 04:40:17.426,1.69479e+06,1619.18,215,6,-0.001060165,2.499989,-0.0026504,0.0004801362,0.0004766939,0.001583492,0.001374448,1630.794,1618.951,0,99.28307,,
	08/24/2022 06:28:11.075,1701262.982,1609.84,217,6,-0.001059827,2.499966,-0.00264953,0.000477401,0.0004739045,0.001574528,0.00136632,1621.514,1609.633,0,99.26758,,
	08/24/2022 08:15:24.724,1.7077e+06,1600.07,219,6,-0.001059924,2.499981,-0.00264979,0.0004744324,0.0004710596,0.001564786,0.001357953,1611.438,1599.817,0,99.2891,,
	08/24/2022 10:01:59.844,1.71409e+06,1590.65,221,6,-0.001060181,2.499981,-0.00265043,0.0004716316,0.0004682547,0.00155559,0.001349781,1601.867,1590.418,0,99.284,,
	08/24/2022 11:47:59.247,1.72045e+06,1581.998,223,6,-0.001060113,2.499992,-0.00265027,0.0004690932,0.0004657906,0.00154723,0.001342611,1593.29,1581.751,0,99.29594,,
	08/24/2022 13:33:22.693,1726774.6,1573.2,225,6,-0.001060118,2.499998,-0.00265029,0.0004663361,0.000463179,0.001538166,0.001335008,1583.898,1572.95,0,99.32298,,
	08/24/2022 15:18:09.984,1.73306e+06,1563.59,227,6,-0.001060093,2.5,-0.00265023,0.0004638264,0.0004603656,0.001529867,0.0013268,1575.397,1563.369,0,99.25386,,
	08/24/2022 17:02:19.088,1.73931e+06,1554.44,229,6,-0.001060091,2.499992,-0.00265022,0.0004609742,0.0004576519,0.001520471,0.001318856,1565.7,1554.184,0,99.27929,,
	08/24/2022 18:45:51.299,1.74552e+06,1545.43,231,6,-0.001059984,2.499968,-0.00264993,0.0004579887,0.0004550151,0.001510686,0.00131112,1555.588,1545.207,0,99.35072,,
	08/24/2022 20:28:49.588,1.7517e+06,1536.7,233,6,-0.001059816,2.49999,-0.00264953,0.0004557269,0.0004524392,0.001503287,0.001303613,1547.868,1536.474,0,99.27858,,
	08/24/2022 22:11:09.878,1.75784e+06,1527.4,235,6,-0.00106008,2.49999,-0.00265019,0.0004527982,0.0004496488,0.001493651,0.001295439,1537.972,1527.187,0,99.30447,,
	08/24/2022 23:52:52.549,1.76394e+06,1517.99,237,6,-0.001060163,2.499989,-0.0026504,0.0004500114,0.0004468905,0.001484534,0.00128738,1528.324,1517.772,0,99.30647,,
	08/25/2022 01:33:58.473,1.77001e+06,1509.09,239,6,-0.001060147,2.499989,-0.00265036,0.0004473276,0.0004443162,0.001475709,0.001279837,1519.366,1508.892,0,99.3268,,
	08/25/2022 03:14:30.290,1.77604e+06,1500.09,241,6,-0.001059811,2.49999,-0.00264952,0.0004447501,0.0004416282,0.001467234,0.001271981,1510.607,1499.858,0,99.29806,,
	08/25/2022 04:54:27.564,1.78204e+06,1492.198,243,6,-0.001059896,2.499992,-0.00264973,0.0004423434,0.0004392769,0.001459348,0.00126514,1502.431,1492.016,0,99.30678,,
	08/25/2022 06:33:51.658,1.788e+06,1484.12,245,6,-0.001059865,2.499979,-0.00264964,0.0004399414,0.0004369052,0.001451464,0.001258213,1494.227,1483.917,0,99.30986,,
	08/25/2022 08:12:43.770,1.79394e+06,1475.35,247,6,-0.001060104,2.499987,-0.00265025,0.0004375187,0.0004343608,0.001443466,0.001250825,1485.822,1475.12,0,99.27822,,
	08/25/2022 09:51:06.701,1.79984e+06,1468.877,249,6,-0.001060116,2.499977,-0.00265027,0.0004355081,0.0004324875,0.001436869,0.001245328,1479.144,1468.657,0,99.30641,,
	08/25/2022 11:29:01.031,1.80571e+06,1461.162,251,6,-0.001060022,2.499996,-0.00265005,0.0004332949,0.0004301752,0.001429586,0.001238581,1471.645,1460.891,0,99.28001,,
	08/25/2022 13:06:32.257,1.81156e+06,1456.01,253,6,-0.001060012,2.499992,-0.00265002,0.000432177,0.0004286639,0.001425802,0.001234274,1467.811,1455.795,0,99.1871,,
	08/25/2022 14:43:27.132,1.81738e+06,1447.12,255,6,-0.001060002,2.499969,-0.00264997,0.0004288093,0.0004260335,0.001414812,0.00122654,1456.348,1446.874,0,99.35265,,
	08/25/2022 16:19:56.616,1.82317e+06,1440.02,257,6,-0.001060026,2.499992,-0.00265006,0.0004269727,0.0004239388,0.001408716,0.001220456,1450.12,1439.768,0,99.28943,,
	08/25/2022 17:55:48.890,1.82892e+06,1431.16,259,6,-0.001059968,2.499989,-0.00264991,0.0004240228,0.0004213391,0.001399062,0.001212781,1440.108,1430.927,0,99.3671,,
	08/25/2022 19:31:10.200,1.83464e+06,1422.98,261,6,-0.00106007,2.499998,-0.00265017,0.0004219022,0.0004189493,0.001392092,0.001205796,1432.926,1422.743,0,99.30009,,
	08/25/2022 21:06:00.154,1.84033e+06,1415.64,263,6,-0.001060084,2.499916,-0.00265012,0.0004194764,0.0004167907,0.001384082,0.001199495,1424.67,1415.418,0,99.35975,,
	08/25/2022 22:40:20.343,1.84599e+06,1408.51,265,6,-0.001060142,2.499987,-0.00265034,0.0004174909,0.0004146843,0.001377611,0.001193357,1417.933,1408.249,0,99.32776,,
	08/26/2022 00:14:09.868,1.85162e+06,1400.6,267,6,-0.001059865,2.499998,-0.00264966,0.0004151065,0.0004123422,0.001369733,0.001186506,1409.849,1400.317,0,99.33408,,
	08/26/2022 01:47:33.427,1.85723e+06,1395.15,269,6,-0.00105986,2.499994,-0.00264964,0.0004133021,0.0004107483,0.001363863,0.001181836,1403.83,1394.973,0,99.3821,,
	08/26/2022 03:20:28.899,1.8628e+06,1387.46,271,6,-0.001059864,2.499985,-0.00264964,0.0004110791,0.0004084324,0.001356504,0.00117508,1396.239,1387.296,0,99.35616,,
	08/26/2022 04:52:55.003,1868346.91,1380.01,273,6,-0.001059885,2.499987,-0.0026497,0.0004089515,0.0004062371,0.001349535,0.001168671,1388.882,1379.838,0,99.33624,,
	08/26/2022 06:24:51.316,1.87386e+06,1372.59,275,6,-0.001060165,2.499998,-0.00265041,0.0004068442,0.000404068,0.0013426,0.001162357,1381.885,1372.407,0,99.31761,,
	08/26/2022 07:56:19.137,1.87935e+06,1366.16,277,6,-0.001059825,2.499996,-0.00264956,0.0004047093,0.0004022408,0.001335595,0.001157008,1374.598,1365.975,0,99.39008,,
	08/26/2022 09:27:22.408,1.88481e+06,1359.34,279,6,-0.001060102,2.499975,-0.00265023,0.0004028837,0.0004002289,0.001329576,0.00115115,1368.419,1359.163,0,99.34105,,
	08/26/2022 10:57:56.530,1.89025e+06,1352.15,281,6,-0.001060149,2.499987,-0.00265036,0.0004007291,0.0003981206,0.001322416,0.001145039,1361.094,1351.983,0,99.34904,,
	08/26/2022 12:28:07.181,1.89566e+06,1346.23,283,6,-0.0010601,2.499998,-0.00265025,0.0003989676,0.0003963742,0.001316654,0.001139934,1355.106,1346.069,0,99.34998,,
	08/26/2022 13:57:51.847,1.90104e+06,1339.69,285,6,-0.001060088,2.49999,-0.00265021,0.0003971203,0.0003944597,0.001310562,0.001134336,1348.856,1339.533,0,99.33001,,
	08/26/2022 15:27:15.598,1.90641e+06,1334.48,287,6,-0.001060074,2.499992,-0.00265018,0.0003956798,0.0003928975,0.001305793,0.001129844,1343.919,1334.3,0,99.29684,,
	08/26/2022 16:56:13.270,1.91175e+06,1328.36,289,6,-0.001060019,2.5,-0.00265005,0.0003937048,0.0003910629,0.001299304,0.001124487,1337.177,1328.101,0,99.32896,,
	08/26/2022 18:24:42.577,1.91705e+06,1321.23,291,6,-0.001060022,2.49999,-0.00265004,0.0003914899,0.000388967,0.001292054,0.001118382,1329.649,1320.966,0,99.35555,,
	08/26/2022 19:52:45.778,1.92234e+06,1314.24,293,6,-0.001060037,2.49999,-0.00265008,0.000389514,0.0003869229,0.001285542,0.001112414,1322.933,1314.01,0,99.33479,,
	08/26/2022 21:20:23.121,1.9276e+06,1308.03,295,6,-0.001060185,2.499989,-0.00265045,0.0003877051,0.0003851168,0.001279553,0.001107123,1316.854,1307.777,0,99.33241,,
	08/26/2022 22:47:32.521,1.93282e+06,1301.17,297,6,-0.001059825,2.5,-0.00264956,0.0003855995,0.0003830225,0.001272644,0.001101007,1309.748,1300.957,0,99.33169,,
	08/27/2022 00:14:15.657,1.93803e+06,1295.17,299,6,-0.001060183,2.499998,-0.00265046,0.0003836963,0.0003812403,0.001266399,0.001095777,1303.277,1294.91,0,99.35992,,
	08/27/2022 01:40:31.605,1.9432e+06,1288.26,301,6,-0.001060125,2.499998,-0.00265031,0.0003817131,0.0003793065,0.001259868,0.001090124,1296.433,1288.06,0,99.36953,,
	08/27/2022 03:06:22.603,1.94835e+06,1281.852,303,6,-0.001060128,2.499992,-0.00265031,0.0003798502,0.0003774217,0.00125373,0.001084617,1290.152,1281.646,0,99.36069,,
	08/27/2022 04:31:48.918,1.95348e+06,1275.874,305,6,-0.001060185,2.499958,-0.00265042,0.0003780395,0.0003756468,0.001247754,0.001079443,1283.967,1275.651,0,99.36707,,
	08/27/2022 05:56:52.618,1.95858e+06,1270.56,307,6,-0.001059839,2.499987,-0.00264958,0.0003764423,0.0003740264,0.001242522,0.00107472,1278.552,1270.337,0,99.35822,,
	08/27/2022 07:21:31.969,1.96366e+06,1264.47,309,6,-0.0010601,2.49999,-0.00265024,0.0003745409,0.000372296,0.001236248,0.001069665,1272.086,1264.243,0,99.40064,,
	08/27/2022 08:45:49.459,1.96872e+06,1258.98,311,6,-0.001060151,2.5,-0.00265038,0.0003729784,0.0003706726,0.001231105,0.001064957,1266.852,1258.831,0,99.3818,,
	08/27/2022 10:09:45.024,1.97376e+06,1253.62,313,6,-0.001060142,2.499973,-0.00265033,0.00037137,0.0003690302,0.001225797,0.001060197,1261.385,1253.423,0,99.36994,,
	08/27/2022 11:33:21.852,1.97877e+06,1248.96,315,6,-0.001060127,2.499998,-0.00265032,0.0003701086,0.0003677241,0.001221647,0.001056382,1257.058,1248.724,0,99.35573,,
	08/27/2022 12:56:36.967,1.98377e+06,1243.34,317,6,-0.001060104,2.499998,-0.00265026,0.0003684406,0.0003660663,0.001216155,0.001051568,1251.351,1243.13,0,99.35561,,
	08/27/2022 14:19:32.107,1.98874e+06,1238.18,319,6,-0.001060046,2.5,-0.002650115,0.0003669806,0.0003645194,0.001211317,0.001047084,1246.353,1237.944,0,99.32935,,
	08/27/2022 15:42:07.714,1.9937e+06,1233.83,321,6,-0.00106003,2.499954,-0.00265003,0.0003654759,0.0003632419,0.001206313,0.001043343,1241.326,1233.605,0,99.38874,,
	08/27/2022 17:04:21.342,1.99863e+06,1228.06,323,6,-0.001060029,2.499996,-0.00265007,0.0003639405,0.0003615415,0.001201308,0.001038447,1236.075,1227.835,0,99.34084,,
	08/27/2022 18:26:12.842,2.00354e+06,1222.39,325,6,-0.001060093,2.499992,-0.00265022,0.0003623756,0.0003598934,0.001196164,0.001033658,1230.764,1222.188,0,99.31501,,
	08/27/2022 19:47:42.074,2008433.981,1216.72,327,6,-0.001060113,2.499987,-0.00265027,0.0003606137,0.0003582279,0.001190361,0.001028731,1224.778,1216.521,0,99.33841,,
	08/27/2022 21:08:48.275,2.0133e+06,1210.97,329,6,-0.001060074,2.499969,-0.00265015,0.0003588148,0.0003565252,0.001184413,0.001023755,1218.681,1210.728,0,99.36189,,
	08/27/2022 22:29:31.399,2.01814e+06,1205.52,331,6,-0.001060133,2.499987,-0.00265032,0.0003571736,0.0003548808,0.001179014,0.001018969,1213.165,1205.313,0,99.35808,,
	08/27/2022 23:49:53.092,2.02296e+06,1200.47,333,6,-0.001059867,2.499998,-0.00264967,0.0003556173,0.0003533662,0.001173904,0.001014554,1207.869,1200.251,0,99.36699,,
	08/28/2022 01:09:53.633,2.02777e+06,1194.98,335,6,-0.001059883,2.499968,-0.00264967,0.000354022,0.0003517894,0.00116863,0.001009955,1202.419,1194.823,0,99.36938,,
	08/28/2022 02:29:32.179,2.03254e+06,1189.5,337,6,-0.001060176,2.499996,-0.00265044,0.0003523741,0.0003502163,0.001163207,0.001005345,1196.825,1189.286,0,99.38763,,
	08/28/2022 03:48:51.794,2.0373e+06,1184.69,339,6,-0.001060132,2.499989,-0.00265032,0.0003509985,0.0003487541,0.001158679,0.001001134,1192.209,1184.48,0,99.36059,,
	08/28/2022 05:07:51.395,2.04204e+06,1179.824,341,6,-0.001059899,2.499998,-0.00264975,0.0003495476,0.0003472863,0.001153899,0.0009968561,1187.248,1179.604,0,99.3531,,
	08/28/2022 06:26:32.265,2.04676e+06,1175.58,343,6,-0.001059931,2.499989,-0.00264982,0.0003482007,0.0003460366,0.001149464,0.0009932092,1182.646,1175.341,0,99.3785,,
	08/28/2022 07:44:53.215,2.05147e+06,1170.05,345,6,-0.001060137,2.499987,-0.00265033,0.0003466643,0.000344496,0.001144397,0.0009887133,1177.399,1169.868,0,99.37453,,
	08/28/2022 09:02:54.318,2.05615e+06,1165.282,347,6,-0.001060105,2.499987,-0.00265025,0.0003452413,0.0003430502,0.001139711,0.000984536,1172.65,1165.093,0,99.36533,,
	08/28/2022 10:20:36.225,2.06081e+06,1160.86,349,6,-0.001059815,2.499975,-0.00264951,0.0003438415,0.0003417255,0.001135098,0.0009806942,1167.86,1160.693,0,99.38461,,
	08/28/2022 11:37:58.732,2065450.639,1155.62,351,6,-0.001060093,2.5,-0.00265023,0.000342441,0.0003402433,0.001130461,0.0009763854,1163.041,1155.421,0,99.35825,,
	08/28/2022 12:55:04.249,2070076.156,1151.8,353,6,-0.001060111,2.499998,-0.00265028,0.0003411552,0.0003391027,0.001126218,0.0009730577,1158.634,1151.604,0,99.39838,,
	08/28/2022 14:11:55.374,2.07469e+06,1148.1,355,6,-0.001060027,2.499994,-0.00265006,0.0003402187,0.0003380126,0.00112315,0.000969889,1155.527,1147.896,0,99.35155,,
	08/28/2022 15:28:28.916,2.07928e+06,1143.36,357,6,-0.001060075,2.499992,-0.00265018,0.0003388778,0.0003366318,0.001118674,0.0009659095,1150.959,1143.182,0,99.33722,,
	08/28/2022 16:44:43.769,2.08386e+06,1138.78,359,6,-0.001060097,2.499989,-0.00265023,0.0003374034,0.0003352685,0.001113842,0.0009619346,1145.958,1138.571,0,99.36726,,
	08/28/2022 18:00:41.345,2.08841e+06,1134.32,361,6,-0.001060068,2.499989,-0.00265016,0.0003361106,0.0003339513,0.001109572,0.0009580576,1141.559,1134.118,0,99.35755,,
	08/28/2022 19:16:18.460,2.09295e+06,1129.13,363,6,-0.001060077,2.499996,-0.00265019,0.0003345538,0.0003324475,0.001104445,0.000953685,1136.328,1128.941,0,99.37043,,
	08/28/2022 20:31:35.258,2.09747e+06,1124.44,365,6,-0.0010601,2.499987,-0.00265024,0.0003331382,0.0003310718,0.001099788,0.0009496945,1131.483,1124.254,0,99.37973,,
	08/28/2022 21:46:33.144,2101965.051,1119.468,367,6,-0.001060163,2.499939,-0.00265034,0.000331698,0.0003296111,0.001095038,0.00094545,1126.566,1119.306,0,99.37085,,
	08/28/2022 23:01:11.811,2.10644e+06,1114.66,369,6,-0.001060109,2.499996,-0.00265027,0.0003303165,0.0003281815,0.001090479,0.0009412956,1121.928,1114.47,0,99.35365,,
	08/29/2022 00:15:32.921,2110904.828,1110.68,371,6,-0.001059867,2.499996,-0.00264966,0.0003289836,0.0003269821,0.001086092,0.000937786,1117.385,1110.476,0,99.3916,,
	08/29/2022 01:29:36.346,2.11535e+06,1106.04,373,6,-0.001060149,2.499977,-0.00265035,0.0003276628,0.0003255934,0.001081736,0.0009337607,1112.907,1105.832,0,99.36842,,
	08/29/2022 02:43:20.771,2.11977e+06,1101.4,375,6,-0.00106013,2.499962,-0.00265028,0.0003262607,0.0003242679,0.001077119,0.0009298995,1108.128,1101.21,0,99.38918,,
	08/29/2022 03:56:48.210,2124180.117,1097.46,377,6,-0.001060118,2.499987,-0.00265028,0.0003249937,0.0003230962,0.001072948,0.0009264855,1103.861,1097.328,0,99.41615,,
	08/29/2022 05:09:58.050,2.12857e+06,1093.047,379,6,-0.001059867,2.5,-0.00264967,0.0003237535,0.0003217462,0.001068869,0.0009225605,1099.631,1092.841,0,99.38,,
	08/29/2022 06:22:51.020,2.13294e+06,1089.2,381,6,-0.001060171,2.499998,-0.00265043,0.0003224867,0.000320652,0.001064695,0.0009193724,1095.264,1089.007,0,99.43109,,
	08/29/2022 07:35:29.526,2.1373e+06,1085.19,383,6,-0.001060162,2.5,-0.002650405,0.0003214361,0.0003195131,0.001061229,0.0009160637,1091.743,1085.006,0,99.40175,,
	08/29/2022 08:47:51.770,2.14164e+06,1081.35,385,6,-0.001060149,2.499996,-0.00265037,0.0003202033,0.0003183079,0.001057153,0.0009125745,1087.589,1081.156,0,99.40804,,
	08/29/2022 09:59:57.550,2.14597e+06,1076.648,387,6,-0.001059841,2.499987,-0.00264959,0.0003189775,0.0003169754,0.001053092,0.0009087354,1083.399,1076.455,0,99.37236,,
	08/29/2022 11:11:48.019,2.15028e+06,1073.08,389,6,-0.001060096,2.499987,-0.00265023,0.0003178753,0.0003159257,0.001049455,0.0009056663,1079.663,1072.872,0,99.38667,,
	08/29/2022 12:23:22.342,2.15457e+06,1069.14,391,6,-0.001060079,2.5,-0.0026502,0.0003166636,0.0003147868,0.001045455,0.0009023413,1075.536,1068.975,0,99.40732,,
	08/29/2022 13:34:42.369,2158854.276,1065.81,393,6,-0.001060049,2.499987,-0.00265011,0.0003157078,0.0003137826,0.001042277,0.0008994336,1072.258,1065.611,0,99.39018,,
	08/29/2022 14:45:47.449,2.16312e+06,1062,395,6,-0.001060044,2.49996,-0.00265007,0.0003145545,0.000312661,0.001038487,0.0008962161,1068.326,1061.826,0,99.39804,,
	08/29/2022 15:56:37.365,2.16737e+06,1058.6,397,6,-0.001060013,2.499998,-0.00265003,0.0003133305,0.0003116627,0.001034445,0.0008932794,1064.191,1058.454,0,99.46774,,
	08/29/2022 17:07:15.369,2.17161e+06,1054.94,399,6,-0.001060091,2.499985,-0.00265021,0.000312496,0.0003105916,0.00103171,0.0008902012,1061.324,1054.794,0,99.39058,,
	08/29/2022 18:17:34.013,2.17583e+06,1050.41,401,6,-0.001060031,2.499996,-0.00265007,0.0003111056,0.0003092418,0.001027109,0.0008862784,1056.571,1050.228,0,99.40092,,
	08/29/2022 19:27:37.068,2.18003e+06,1046.46,403,6,-0.001059993,2.499979,-0.00264996,0.0003100458,0.0003080763,0.001023644,0.0008829074,1053.01,1046.269,0,99.36476,,
	08/29/2022 20:37:23.994,2184215.901,1042.34,405,6,-0.00106007,2.499971,-0.00265014,0.0003088345,0.0003068878,0.001019609,0.0008794164,1048.926,1042.157,0,99.36968,,
	08/29/2022 21:46:54.417,2.18839e+06,1038.4,407,6,-0.001060123,2.499994,-0.0026503,0.0003075516,0.0003057209,0.001015387,0.000875996,1044.526,1038.197,0,99.40475,,
	08/29/2022 22:56:08.688,2.19254e+06,1034.212,409,6,-0.001060104,2.499973,-0.00265023,0.000306377,0.0003045029,0.001011512,0.0008724716,1040.581,1034.05,0,99.38831,,
	08/30/2022 00:05:08.076,2.19668e+06,1031.02,411,6,-0.001059851,2.499998,-0.00264963,0.0003053113,0.0003035457,0.001008009,0.0008696631,1036.95,1030.829,0,99.42172,,
	08/30/2022 01:13:52.096,2.2008e+06,1026.87,413,6,-0.001060186,2.499992,-0.00265046,0.0003041497,0.0003023421,0.001004167,0.0008661841,1032.981,1026.7,0,99.40568,,
	08/30/2022 02:22:20.145,2.20491e+06,1022.65,415,6,-0.001060116,2.499996,-0.00265029,0.0003029373,0.0003010952,0.001000167,0.0008625808,1028.894,1022.465,0,99.39193,,
	08/30/2022 03:30:32.457,2.209e+06,1019.32,417,6,-0.001059844,2.499989,-0.0026496,0.0003017882,0.0003000737,0.0009963859,0.0008595887,1025.008,1019.139,0,99.43189,,
	08/30/2022 17:24:47.186,2.21309e+06,1030.747,419,6,-0.001060099,2.49999,-0.00265024,0.0002985658,0.0003034718,0.0009885271,0.0008684474,392.5106,1030.577,0,101.6432,,
	08/30/2022 18:31:43.920,2.21711e+06,999.2163,421,6,-0.001060007,2.499987,-0.00265,0.0002957775,0.0002941777,0.000976591,0.0008420759,1004.624,999.0623,0,99.45913,,
	08/30/2022 19:38:21.742,2221106.646,995.8963,423,6,-0.001060066,2.499985,-0.00265015,0.000294964,0.0002932254,0.0009737668,0.0008394464,1001.863,995.7597,0,99.41058,,
	08/30/2022 20:44:49.996,2.22509e+06,993.2348,425,6,-0.0010601,2.499926,-0.00265017,0.0002941962,0.0002924392,0.0009711757,0.0008372203,999.208,993.0697,0,99.40277,,
	08/30/2022 21:51:05.944,2.22907e+06,990.1953,427,6,-0.001060158,2.499996,-0.00265039,0.0002933101,0.0002915436,0.0009682857,0.0008347306,996.2354,990.0577,0,99.39772,,
	08/30/2022 22:57:10.531,2.23304e+06,986.9972,429,6,-0.001060183,2.499994,-0.00265045,0.0002924245,0.000290593,0.0009653455,0.0008319648,993.1979,986.8572,0,99.3737,,
	08/31/2022 00:03:00.843,2.23699e+06,983.9289,431,6,-0.001059816,2.499945,-0.00264948,0.0002913134,0.0002896652,0.0009616832,0.0008292703,989.3854,983.77,0,99.43422,,
	08/31/2022 01:08:39.138,2.24092e+06,980.6689,433,6,-0.001060176,2.499992,-0.00265043,0.0002904914,0.0002887288,0.0009589763,0.0008265853,986.6737,980.5273,0,99.39323,,
	08/31/2022 02:14:04.725,2.24485e+06,977.8065,435,6,-0.001059873,2.499996,-0.00264968,0.0002895528,0.0002878341,0.0009558607,0.0008239876,983.5038,977.6627,0,99.40643,,
	08/31/2022 03:19:17.151,2.24876e+06,974.4743,437,6,-0.00105988,2.499981,-0.00264968,0.0002885396,0.0002868758,0.0009525077,0.0008212091,980.0259,974.3152,0,99.4234,,
	08/31/2022 04:24:17.272,2.25266e+06,971.2576,439,6,-0.001059904,2.499981,-0.00264974,0.0002876201,0.0002859107,0.0009494773,0.0008184338,976.9338,971.119,0,99.40569,,
	08/31/2022 05:29:03.440,2.25655e+06,967.996,441,6,-0.001059902,2.499996,-0.00264975,0.0002866158,0.000284954,0.0009461627,0.0008156579,973.5221,967.869,0,99.4202,,
	08/31/2022 06:33:37.581,2.26042e+06,964.8128,443,6,-0.001060177,2.499933,-0.00265037,0.0002857496,0.0002840441,0.0009433047,0.0008130026,970.548,964.6613,0,99.40314,,
	08/31/2022 07:37:59.343,2.26428e+06,961.7766,445,6,-0.001059853,2.49996,-0.00264959,0.0002847724,0.0002831357,0.0009400707,0.0008103611,967.2627,961.6375,0,99.42525,,
	08/31/2022 08:42:07.282,2.26813e+06,958.1935,447,6,-0.001059806,2.499971,-0.00264948,0.000283752,0.0002820572,0.0009366979,0.0008072666,963.7622,958.0447,0,99.40273,,
	08/31/2022 09:46:03.149,2.27197e+06,955.1038,449,6,-0.001059849,2.499987,-0.00264961,0.0002828648,0.0002811501,0.0009337827,0.000804643,960.7852,954.9542,0,99.39382,,
	08/31/2022 10:49:46.110,2.27579e+06,952.1205,451,6,-0.001060135,2.499989,-0.00265033,0.0002820036,0.0002803393,0.0009309344,0.0008022852,957.824,951.9881,0,99.40984,,
	08/31/2022 11:53:17.355,2279602.259,949.515,453,6,-0.00106008,2.499998,-0.0026502,0.0002810852,0.000279568,0.000927901,0.0008000694,954.6347,949.3676,0,99.46023,,
	08/31/2022 12:56:38.908,2.2834e+06,946.9638,455,6,-0.001060074,2.499987,-0.00265017,0.0002803199,0.0002788012,0.0009253634,0.0007978099,952.1115,946.8099,0,99.45821,,
	08/31/2022 13:59:50.548,2.2872e+06,944.2172,457,6,-0.001060084,2.499989,-0.0026502,0.0002796493,0.0002779993,0.0009231134,0.0007955308,949.8501,944.0607,0,99.40995,,
	08/31/2022 15:02:49.452,2.29097e+06,940.95,459,6,-0.001060074,2.499977,-0.00265016,0.0002786926,0.0002770282,0.00091997,0.000792705,946.5731,940.782,0,99.40279,,
	08/31/2022 16:05:36.081,2.29474e+06,937.9356,461,6,-0.00106007,2.499996,-0.00265017,0.0002778367,0.0002761567,0.0009171363,0.0007901905,943.6576,937.8048,0,99.39532,,
	08/31/2022 17:08:10.213,2298495.117,934.9445,463,6,-0.001060068,2.499994,-0.00265016,0.000276881,0.0002752661,0.0009139905,0.0007875964,940.3709,934.8072,0,99.41674,,
	08/31/2022 18:10:33.036,2.30224e+06,931.9867,465,6,-0.001059952,2.499996,-0.00264988,0.0002760823,0.0002743702,0.0009113493,0.0007850064,937.6954,931.836,0,99.37988,,
	08/31/2022 19:12:44.471,2.30597e+06,929.6465,467,6,-0.001060037,2.499966,-0.00265006,0.0002754762,0.0002736961,0.0009093145,0.0007830779,935.6535,929.4861,0,99.35378,,
	08/31/2022 20:14:41.354,2309686.258,925.6778,469,6,-0.001060084,2.499989,-0.0026502,0.0002741379,0.0002725348,0.0009049455,0.0007796939,931.0871,925.5215,0,99.4152,,
	08/31/2022 21:16:25.180,2.31339e+06,922.589,471,6,-0.001060015,2.499992,-0.00265003,0.0002731232,0.0002716194,0.0009015871,0.0007769979,927.644,922.449,0,99.44939,,
	08/31/2022 22:17:58.830,2.31708e+06,919.9426,473,6,-0.001060046,2.499992,-0.00265011,0.0002724313,0.0002708354,0.0008992857,0.0007747713,925.2437,919.804,0,99.41422,,
	08/31/2022 23:19:20.866,2.32077e+06,916.9691,475,6,-0.001060044,2.499998,-0.00265011,0.0002716264,0.0002699691,0.0008966008,0.0007722417,922.5558,916.8317,0,99.38988,,
	09/01/2022 00:20:31.119,2.32444e+06,914.1355,477,6,-0.001059994,2.499992,-0.00264998,0.0002706825,0.0002691296,0.0008935143,0.0007698099,919.3625,913.9802,0,99.42632,,
	09/01/2022 01:21:28.586,2.32809e+06,910.9448,479,6,-0.001060042,2.49999,-0.00265009,0.000269683,0.0002681916,0.0008901997,0.0007670798,915.9446,910.7988,0,99.44698,,
	09/01/2022 02:22:14.727,2.33174e+06,908.0288,481,6,-0.001060038,2.5,-0.002650095,0.0002688948,0.0002673293,0.0008876119,0.0007646065,913.2195,907.884,0,99.41782,,
	09/01/2022 03:22:51.092,2.33538e+06,906.0933,483,6,-0.00106004,2.499987,-0.00265009,0.0002681438,0.0002667502,0.0008851668,0.0007629583,910.7134,905.9621,0,99.48028,,
	09/01/2022 04:23:15.972,2.339e+06,902.7102,485,6,-0.001060051,2.499975,-0.0026501,0.0002673061,0.000265775,0.0008823579,0.000760101,907.8914,902.5816,0,99.42724,,
	09/01/2022 05:23:30.910,2.34262e+06,900.6079,487,6,-0.001060107,2.5,-0.00265027,0.0002666955,0.0002651513,0.0008803435,0.0007583225,905.7856,900.4507,0,99.42098,,
	09/01/2022 06:23:35.226,2.34622e+06,897.8623,489,6,-0.001060093,2.499987,-0.00265022,0.0002657342,0.0002643362,0.0008771774,0.0007559403,902.504,897.7136,0,99.47392,,
	09/01/2022 07:23:25.969,2.34981e+06,894.0463,491,6,-0.001060102,2.499968,-0.00265022,0.0002648222,0.0002632141,0.0008741847,0.0007526877,899.4312,893.8942,0,99.3928,,
	09/01/2022 08:23:05.236,2.35339e+06,891.6341,493,6,-0.001059959,2.499989,-0.00264989,0.0002639917,0.0002624936,0.0008714512,0.000750608,896.6232,891.4778,0,99.43252,,
	09/01/2022 09:22:34.191,2.35696e+06,889.0293,495,6,-0.001060066,2.499983,-0.00265015,0.0002632909,0.0002617394,0.0008691136,0.0007484246,894.2258,888.8833,0,99.4107,,
	09/01/2022 10:21:55.892,2.36052e+06,887.4118,497,6,-0.001060047,2.49999,-0.00265011,0.0002627531,0.0002612534,0.0008673194,0.0007470256,892.4059,887.2668,0,99.42924,,
	09/01/2022 11:21:04.796,2.36407e+06,883.5974,499,6,-0.001060052,2.49999,-0.00265012,0.0002616435,0.0002601356,0.0008636841,0.0007437866,888.6195,883.4525,0,99.42369,,
	09/01/2022 12:20:00.510,2.36761e+06,880.4578,501,6,-0.00106007,2.499979,-0.00265015,0.0002606906,0.00025922,0.0008605235,0.0007411198,885.4534,880.3235,0,99.43587,,
	09/01/2022 13:18:44.817,2.37113e+06,877.6894,503,6,-0.001060066,2.499989,-0.00265015,0.0002599121,0.0002584136,0.000857972,0.0007388045,882.7979,877.5472,0,99.42346,,