File: Cell-test-data/SiMP-LFP-SF1/JB1_SiMP-LFP-SF1_Channel_71_StatisticByStep.CSV
Date_Time                    ,Test Time (s),Step Time (s),Cycle Index,Step Index,Current (A),Voltage (V),Power (W),Charge Capacity (Ah),Discharge Capacity (Ah),Charge Energy (Wh),Discharge Energy (Wh),Charge Time (s),Discharge Time (s),V_Max_On_Cycle (V),Coulombic Efficiency (%),mAh/g
	08/05/2022 01:53:48.095,43200,43200,1.00,1.00,0,0.223279,0,0,0,0,0,0,0,0,0,,
	08/07/2022 23:40:07.170,294379,58263.5,2.00,3.00,-0.0001589989,2.5,-0.000397497,0.002686617,0.002572827,0.008685493,0.007616769,60831.55,58254.82,0,95.76453,,
	08/09/2022 11:56:42.670,424975,7342.91,4.00,6.00,-0.001060054,2.5,-0.002650135,0.002340483,0.002161852,0.007661649,0.006276948,7949.381,7341.84,0,92.36777,,
	08/09/2022 19:53:39.567,453591,6978.2,6.00,6.00,-0.001060057,2.499992,-0.00265013,0.002110007,0.002054453,0.006887991,0.005965605,7166.663,6977.237,0,97.36713,,
	08/10/2022 03:30:05.196,480977,6688.22,8.00,6.00,-0.001060195,2.499977,-0.00265046,0.002018586,0.00196914,0.006590773,0.005715817,6855.909,6687.23,0,97.5505,,
	08/10/2022 10:48:06.473,507258,6432.35,10.00,6.00,-0.00106007,2.499987,-0.00265016,0.001936878,0.001893802,0.00632739,0.005495208,6578.58,6431.412,0,97.77604,,
	08/10/2022 17:52:55.981,532748,6257.96,12.00,6.00,-0.001059989,2.499971,-0.00264994,0.001882889,0.001842366,0.006147902,0.005352145,6395.221,6257.02,0,97.84784,,
	08/11/2022 00:45:04.763,557477,6071.05,14.00,6.00,-0.00106001,2.499992,-0.00265002,0.001825291,0.001787308,0.005959523,0.005194333,6199.387,6070.144,0,97.91905,,
	08/11/2022 07:23:36.993,581389,5861.02,16.00,6.00,-0.001060124,2.499998,-0.00265031,0.001762059,0.001725618,0.00575592,0.005012662,5984.707,5860.182,0,97.93193,,
	08/11/2022 13:48:44.221,604496,5688.56,18.00,6.00,-0.001059954,2.499992,-0.00264988,0.001704821,0.001674726,0.005572237,0.004865639,5790.302,5687.729,0,98.23476,,
	08/11/2022 20:04:49.784,627062,5550.67,20.00,6.00,-0.001060058,2.5,-0.002650145,0.001665361,0.001634119,0.005441085,0.004750845,5656.212,5549.861,0,98.12402,,
	08/12/2022 02:09:53.769,648966,5375.32,22.00,6.00,-0.001060051,2.499992,-0.00265012,0.001614267,0.001582615,0.005276031,0.00459916,5482.653,5374.518,0,98.03928,,
	08/12/2022 08:03:05.878,670158,5209.82,24.00,6.00,-0.001060125,2.499985,-0.0026503,0.001561706,0.001533916,0.005107956,0.004455198,5304.166,5209.041,0,98.2205,,
	08/12/2022 13:47:03.674,690796,5090.45,26.00,6.00,-0.001059932,2.5,-0.00264983,0.001523439,0.001498631,0.004983991,0.004355142,5174.21,5089.71,0,98.3716,,
	08/12/2022 19:24:40.320,711052,4991.27,28.00,6.00,-0.001060033,2.499998,-0.00265008,0.001495611,0.001469432,0.004890344,0.004273854,5079.726,4990.532,0,98.24968,,
	08/13/2022 00:53:59.139,730811,4861.99,30.00,6.00,-0.001060024,2.499989,-0.00265005,0.00145718,0.001431406,0.004765574,0.00416242,4949.178,4861.271,0,98.23123,,
	08/13/2022 06:14:17.361,750029,4731.48,32.00,6.00,-0.001060019,2.499956,-0.00265,0.001417101,0.001393031,0.004636814,0.004049369,4812.993,4730.774,0,98.30146,,
	08/13/2022 11:25:55.898,768728,4609.88,34.00,6.00,-0.001060008,2.499985,-0.00265,0.001377804,0.001357172,0.004511028,0.003943994,4679.638,4609.201,0,98.50256,,
	08/13/2022 16:31:56.773,787089,4528.53,36.00,6.00,-0.001060113,2.499983,-0.00265026,0.001355478,0.001333246,0.004436011,0.003876935,4603.697,4527.858,0,98.35981,,
	08/13/2022 21:30:30.374,805002,4417.51,38.00,6.00,-0.001060003,2.499985,-0.00264999,0.001320899,0.001300539,0.00432509,0.003780488,4486.241,4416.844,0,98.45863,,
	08/14/2022 02:22:35.957,822528,4320.86,40.00,6.00,-0.001060042,2.5,-0.002650105,0.001292303,0.001272112,0.004232028,0.003697557,4389.147,4320.234,0,98.43761,,
	08/14/2022 07:07:55.106,839647,4222.85,42.00,6.00,-0.001060084,2.499996,-0.00265021,0.001262349,0.001243275,0.004135278,0.003613014,4287.431,4222.195,0,98.48904,,
	08/14/2022 11:47:17.225,856409,4144.16,44.00,6.00,-0.001060049,2.499994,-0.00265012,0.001237076,0.001220051,0.004053266,0.003546228,4201.572,4143.547,0,98.62376,,
	08/14/2022 16:21:00.697,872833,4044.81,46.00,6.00,-0.001060068,2.499994,-0.00265016,0.001208999,0.001190884,0.003962212,0.003459478,4106.188,4044.169,0,98.50167,,
	08/14/2022 20:49:02.026,888914,3979.76,48.00,6.00,-0.001060007,2.499996,-0.00265001,0.001187411,0.001171658,0.003892023,0.003404994,4032.941,3979.149,0,98.67328,,
	08/15/2022 01:13:22.932,904775,3919.7,50.00,6.00,-0.00106001,2.499989,-0.00265001,0.00117042,0.001153961,0.00383542,0.003355001,3975.214,3919.089,0,98.5938,,
	08/15/2022 05:32:48.278,920340,3846.07,52.00,6.00,-0.001060049,2.499998,-0.00265012,0.001147778,0.001132301,0.003761759,0.003291821,3898.309,3845.493,0,98.65157,,
	08/15/2022 09:47:19.777,935612,3771.68,54.00,6.00,-0.001059913,2.499996,-0.00264978,0.001125973,0.001110412,0.003690897,0.003227635,3824.226,3771.123,0,98.61798,,
	08/15/2022 13:57:32.732,950625,3710.62,56.00,6.00,-0.00106004,2.499994,-0.00265009,0.001108184,0.001092445,0.003632559,0.003176001,3763.76,3710.084,0,98.5797,,
	08/15/2022 18:02:28.663,965321,3629.31,58.00,6.00,-0.001060052,2.499989,-0.00265012,0.001082932,0.001068487,0.003551414,0.003104709,3678.161,3628.787,0,98.66611,,
	08/15/2022 22:03:10.125,979762,3578.06,60.00,6.00,-0.001059936,2.5,-0.00264984,0.001066121,0.001053366,0.003496447,0.003061678,3620.927,3577.522,0,98.8036,,
	08/16/2022 02:01:07.457,994039,3534.83,62.00,6.00,-0.001059974,2.499987,-0.00264992,0.001054051,0.001040649,0.003455962,0.003026092,3579.898,3534.317,0,98.72858,,
	08/16/2022 05:55:37.726,1.00811e+06,3480.38,64.00,6.00,-0.00105994,2.49999,-0.00264984,0.001038116,0.001024585,0.003403659,0.00297966,3525.833,3479.869,0,98.69654,,
	08/16/2022 09:45:57.276,1.02193e+06,3410.64,66.00,6.00,-0.001060029,2.499987,-0.00265006,0.001018689,0.001004101,0.003340552,0.002918842,3459.839,3410.093,0,98.56792,,
	08/16/2022 13:30:48.425,1.03542e+06,3334.03,68.00,6.00,-0.001060079,2.499987,-0.00265018,0.0009940305,0.00098161,0.003261944,0.002851196,3376.192,3333.518,0,98.7505,,
	08/16/2022 17:11:17.755,1.04865e+06,3272.39,70.00,6.00,-0.001060017,2.499989,-0.00265003,0.0009749811,0.0009634311,0.003200459,0.002797385,3311.473,3271.928,0,98.81536,,
	08/16/2022 20:48:57.935,1.06171e+06,3240.55,72.00,6.00,-0.001059971,2.499985,-0.00264991,0.0009646629,0.0009539893,0.003166215,0.00277152,3276.369,3240.068,0,98.89354,,
	08/17/2022 00:24:54.560,1.07467e+06,3210.33,74.00,6.00,-0.001059908,2.499985,-0.00264975,0.000957003,0.0009450659,0.003140017,0.002747016,3250.271,3209.871,0,98.75266,,
	08/17/2022 03:58:06.299,1.08746e+06,3167.66,76.00,6.00,-0.001059971,2.499981,-0.00264991,0.0009438457,0.0009324951,0.003096693,0.002710778,3205.637,3167.174,0,98.79741,,
	08/17/2022 07:28:21.040,1.10007e+06,3123.05,78.00,6.00,-0.001059902,2.499996,-0.00264975,0.0009307124,0.0009193601,0.003053651,0.002672659,3160.922,3122.548,0,98.78026,,
	08/17/2022 10:54:56.431,1.11247e+06,3066.81,80.00,6.00,-0.00105991,2.499998,-0.00264977,0.000913201,0.0009028218,0.002997142,0.002623423,3101.549,3066.352,0,98.86343,,
	08/17/2022 14:18:23.448,1.12468e+06,3021.05,82.00,6.00,-0.001059998,2.499989,-0.00264998,0.0009003215,0.0008893457,0.002955064,0.002583992,3057.924,3020.585,0,98.7809,,
	08/17/2022 17:38:00.068,1.13665e+06,2956.55,84.00,6.00,-0.001060084,2.499989,-0.0026502,0.0008817203,0.0008704396,0.002895379,0.002526824,2994.709,2956.148,0,98.7206,,
	08/17/2022 20:52:58.654,1.14835e+06,2893.91,86.00,6.00,-0.001060002,2.499975,-0.00264998,0.0008615025,0.0008520426,0.002831084,0.00247146,2926.079,2893.479,0,98.90193,,
	08/18/2022 00:04:58.789,1.15987e+06,2853.58,88.00,6.00,-0.00106006,2.499987,-0.00265014,0.0008497356,0.0008401389,0.002792616,0.002436747,2886.081,2853.163,0,98.87063,,
	08/18/2022 03:14:24.921,1.17124e+06,2817.15,90.00,6.00,-0.001059982,2.499992,-0.00264995,0.0008383831,0.0008293698,0.002755617,0.002405435,2847.559,2816.678,0,98.92491,,
	08/18/2022 06:21:29.587,1.18246e+06,2781.33,92.00,6.00,-0.001060166,2.499998,-0.00265041,0.0008279706,0.0008189102,0.002721646,0.002374898,2812.192,2780.908,0,98.90571,,
	08/18/2022 09:26:03.804,1.19354e+06,2746.11,94.00,6.00,-0.001060132,2.499981,-0.00265031,0.0008166407,0.000808531,0.002684676,0.00234439,2773.642,2745.744,0,99.00694,,
	08/18/2022 12:28:21.829,1.20447e+06,2710.2,96.00,6.00,-0.001060043,2.499983,-0.00265009,0.0008068004,0.000797956,0.002652527,0.002313541,2740.235,2709.849,0,98.90376,,
	08/18/2022 15:28:18.309,1.21527e+06,2676.19,98.00,6.00,-0.001059989,2.499994,-0.00264997,0.0007963636,0.0007879431,0.002618489,0.002284267,2704.761,2675.795,0,98.94263,,
	08/18/2022 18:26:06.047,1.22594e+06,2645.62,100.00,6.00,-0.001060068,2.499987,-0.00265016,0.0007867739,0.0007789214,0.002587178,0.002257888,2672.202,2645.254,0,99.00193,,
	08/18/2022 21:21:46.449,1.23648e+06,2614.12,102.00,6.00,-0.001060061,2.499998,-0.00265015,0.0007772005,0.0007696733,0.002555968,0.002230942,2639.769,2613.723,0,99.03149,,
	08/19/2022 00:15:22.023,1.24689e+06,2582.63,104.00,6.00,-0.00106007,2.499987,-0.00265016,0.0007680748,0.0007603755,0.002526141,0.002203751,2608.756,2582.22,0,98.9976,,
	08/19/2022 03:06:53.666,1.25719e+06,2552.53,106.00,6.00,-0.001060149,2.49999,-0.00265036,0.0007589528,0.0007514855,0.002496372,0.002177735,2577.802,2552.135,0,99.01611,,
	08/19/2022 05:56:27.356,1.26736e+06,2523.59,108.00,6.00,-0.001059855,2.499969,-0.0026496,0.0007502302,0.0007428907,0.002467943,0.002152615,2548.023,2523.189,0,99.0217,,
	08/19/2022 08:44:03.478,1.27742e+06,2494,110.00,6.00,-0.001060163,2.499998,-0.00265041,0.0007415997,0.0007342179,0.002439728,0.002127307,2518.813,2493.602,0,99.0046,,
	08/19/2022 11:29:44.054,1.28736e+06,2465.3,112.00,6.00,-0.001060157,2.499987,-0.00265038,0.0007329748,0.0007258256,0.002411523,0.002102775,2489.573,2464.922,0,99.02463,,
	08/19/2022 14:13:39.572,1.29719e+06,2440.62,114.00,6.00,-0.00106011,2.499981,-0.00265025,0.0007255343,0.0007185565,0.002387159,0.002081634,2464.254,2440.222,0,99.03825,,
	08/19/2022 16:55:48.914,1.30692e+06,2413.88,116.00,6.00,-0.001060027,2.499966,-0.00265003,0.000717565,0.0007106872,0.002361197,0.002058569,2437.25,2413.516,0,99.04151,,
	08/19/2022 19:36:12.040,1.31654e+06,2387.34,118.00,6.00,-0.00106003,2.499998,-0.00265007,0.0007097358,0.0007028944,0.002335605,0.002035722,2410.606,2386.999,0,99.03606,,
	08/19/2022 22:14:57.117,1.32607e+06,2364.44,120.00,6.00,-0.001060088,2.499996,-0.00265022,0.0007027035,0.0006961664,0.002312594,0.0020161,2386.736,2364.094,0,99.06973,,
	08/20/2022 00:52:01.973,1.33549e+06,2338.43,122.00,6.00,-0.001059821,2.499996,-0.00264955,0.0006949491,0.0006884893,0.002287254,0.001993633,2360.327,2338.094,0,99.07047,,
	08/20/2022 03:27:29.116,1.34482e+06,2314.85,124.00,6.00,-0.001060086,2.499989,-0.0026502,0.0006878893,0.0006815372,0.002264151,0.001973335,2336.365,2314.55,0,99.07658,,
	08/20/2022 06:01:25.630,1.35406e+06,2291.74,126.00,6.00,-0.001060121,2.49999,-0.00265029,0.000681431,0.0006747764,0.002243072,0.001953651,2314.423,2291.416,0,99.02344,,
	08/20/2022 08:33:45.794,1.3632e+06,2268.89,128.00,6.00,-0.001060049,2.499977,-0.0026501,0.0006740133,0.0006680001,0.002218757,0.001933795,2289.304,2268.538,0,99.10784,,
	08/20/2022 11:04:38.796,1.37225e+06,2247.66,130.00,6.00,-0.00106006,2.5,-0.00265015,0.0006675808,0.0006617362,0.002197751,0.001915375,2267.48,2247.321,0,99.12451,,
	08/20/2022 13:34:03.319,1.38122e+06,2224.8,132.00,6.00,-0.001060042,2.499987,-0.00265009,0.0006610724,0.0006550334,0.002176426,0.00189581,2245.391,2224.442,0,99.08647,,
	08/20/2022 16:01:59.312,1.39009e+06,2203.68,134.00,6.00,-0.001059902,2.499998,-0.00264975,0.000654567,0.0006488031,0.002155259,0.001877599,2223.189,2203.353,0,99.11943,,
	08/20/2022 18:28:31.594,1.39888e+06,2183.72,136.00,6.00,-0.001060135,2.499998,-0.00265034,0.0006487074,0.0006429553,0.002136046,0.001860541,2203.235,2183.393,0,99.11329,,
	08/20/2022 20:53:38.655,1.40759e+06,2161.17,138.00,6.00,-0.001060105,2.499996,-0.00265026,0.000642092,0.0006362823,0.002114333,0.001841001,2180.906,2160.804,0,99.09519,,
	08/20/2022 23:17:30.932,1.41622e+06,2143.99,140.00,6.00,-0.001060072,2.49999,-0.00265017,0.0006366466,0.0006312659,0.002096509,0.00182637,2162.393,2143.675,0,99.15485,,
	08/21/2022 01:40:04.755,1.42478e+06,2123.95,142.00,6.00,-0.001059862,2.499981,-0.00264963,0.0006307461,0.0006253203,0.002077218,0.001809024,2142.271,2123.648,0,99.13979,,
	08/21/2022 04:01:19.044,1.43325e+06,2104.44,144.00,6.00,-0.001059841,2.499973,-0.00264957,0.0006249868,0.0006195669,0.002058372,0.001792134,2122.771,2104.109,0,99.1328,,
	08/21/2022 06:21:16.492,1.44165e+06,2085.49,146.00,6.00,-0.001059841,2.499989,-0.00264959,0.0006192831,0.0006139244,0.002039721,0.001775622,2103.452,2085.192,0,99.13469,,
	08/21/2022 08:39:58.691,1.44997e+06,2066.86,148.00,6.00,-0.001060165,2.499998,-0.00265041,0.0006136966,0.0006084356,0.002021443,0.001759589,2084.375,2066.585,0,99.14273,,
	08/21/2022 10:57:28.731,1.45822e+06,2049.3,150.00,6.00,-0.001059896,2.499987,-0.00264973,0.000608556,0.0006033793,0.002004584,0.001744839,2067,2048.992,0,99.14935,,
	08/21/2022 13:13:53.539,1.46641e+06,2033.82,152.00,6.00,-0.001060084,2.5,-0.00265021,0.0006036022,0.0005988125,0.001988324,0.001731519,2050.171,2033.497,0,99.2065,,
	08/21/2022 15:29:13.915,1.47453e+06,2016.92,154.00,6.00,-0.001060123,2.499966,-0.00265027,0.0005987578,0.00059382,0.001972458,0.00171691,2033.745,2016.594,0,99.17532,,
	08/21/2022 17:43:27.025,1.48258e+06,2000.55,156.00,6.00,-0.00106016,2.49999,-0.00265039,0.0005938304,0.0005889975,0.001956357,0.001702817,2016.849,2000.207,0,99.18614,,
	08/21/2022 19:56:35.027,1.49057e+06,1984.6,158.00,6.00,-0.001060174,2.499996,-0.00265043,0.0005891337,0.0005842799,0.001940998,0.001688978,2001.04,1984.252,0,99.17612,,
	08/21/2022 22:08:38.477,1.49849e+06,1968,160.00,6.00,-0.001060157,2.499992,-0.00265038,0.000584451,0.0005793917,0.001925632,0.001674714,1985.067,1967.707,0,99.13435,,
	08/22/2022 00:19:34.655,1.50635e+06,1952.02,162.00,6.00,-0.001059882,2.5,-0.002649705,0.0005792984,0.0005746671,0.001908793,0.001660889,1967.618,1951.732,0,99.20052,,
	08/22/2022 02:29:27.460,1.51414e+06,1936.1,164.00,6.00,-0.001059868,2.499992,-0.00264966,0.0005747722,0.0005699728,0.001893958,0.001647159,1952.131,1935.83,0,99.16499,,
	08/22/2022 04:38:21.080,1.52187e+06,1922.13,166.00,6.00,-0.001059918,2.499987,-0.00264978,0.0005703585,0.0005658512,0.001879503,0.001635068,1937.165,1921.863,0,99.20973,,
	08/22/2022 06:46:13.709,1.52955e+06,1906.43,168.00,6.00,-0.001059945,2.499981,-0.00264984,0.0005658205,0.0005611993,0.001864621,0.0016215,1921.801,1906.148,0,99.18327,,
	08/22/2022 08:53:05.030,1.53716e+06,1891.32,170.00,6.00,-0.001059902,2.499979,-0.00264973,0.0005613209,0.0005567823,0.001849888,0.001608593,1906.502,1891.048,0,99.19145,,
	08/22/2022 10:58:57.147,1.54471e+06,1877.08,172.00,6.00,-0.001060142,2.499977,-0.00265033,0.0005569621,0.0005526384,0.001835609,0.001596453,1891.778,1876.825,0,99.22371,,
	08/22/2022 13:03:53.498,1.55221e+06,1862.97,174.00,6.00,-0.001060125,2.49999,-0.0026503,0.0005526899,0.0005485039,0.001821524,0.001584411,1877.186,1862.683,0,99.2426,,
	08/22/2022 15:07:56.192,1.55965e+06,1849.42,176.00,6.00,-0.001060088,2.499992,-0.00265021,0.0005489774,0.0005445073,0.001809399,0.001572776,1864.651,1849.104,0,99.18574,,
	08/22/2022 17:11:01.717,1.56703e+06,1835.03,178.00,6.00,-0.001060141,2.5,-0.00265035,0.0005448283,0.0005402973,0.001795798,0.001560449,1850.505,1834.775,0,99.16836,,
	08/22/2022 19:13:11.047,1.57436e+06,1821.77,180.00,6.00,-0.001060042,2.499987,-0.00265009,0.0005405829,0.0005363767,0.001781857,0.001549022,1836.114,1821.494,0,99.22192,,
	08/22/2022 21:14:28.256,1.58164e+06,1808.99,182.00,6.00,-0.001060132,2.499973,-0.0026503,0.0005367157,0.0005326299,0.001769166,0.001538035,1822.867,1808.771,0,99.23875,,
	08/22/2022 23:14:57.503,1.58887e+06,1797.8,184.00,6.00,-0.001060084,2.499966,-0.00265017,0.0005332235,0.0005293055,0.001757737,0.001528308,1811.074,1797.527,0,99.26524,,
	08/23/2022 01:14:33.892,1.59605e+06,1784.22,186.00,6.00,-0.001060162,2.499998,-0.0026504,0.0005292124,0.0005253252,0.001744536,0.001516697,1797.251,1783.979,0,99.26549,,
	08/23/2022 03:13:20.663,1.60317e+06,1771.24,188.00,6.00,-0.001060151,2.499981,-0.00265036,0.0005255979,0.0005215064,0.001732709,0.001505482,1785.214,1770.956,0,99.22154,,
	08/23/2022 05:11:14.903,1.61025e+06,1758.79,190.00,6.00,-0.001060141,2.499989,-0.00265034,0.0005218218,0.0005178346,0.001720333,0.001494743,1772.415,1758.516,0,99.23591,,
	08/23/2022 07:08:20.673,1.61727e+06,1746.72,192.00,6.00,-0.00105983,2.499996,-0.00264957,0.0005181688,0.0005142096,0.001708352,0.001484156,1759.969,1746.473,0,99.23592,,
	08/23/2022 09:04:35.914,1.62425e+06,1734.35,194.00,6.00,-0.001060121,2.499966,-0.00265027,0.0005144271,0.000510587,0.001696032,0.001473587,1747.252,1734.089,0,99.25352,,
	08/23/2022 11:00:03.019,1.63117e+06,1721.79,196.00,6.00,-0.001060088,2.499998,-0.00265022,0.0005108519,0.0005069361,0.001684338,0.001462873,1735.067,1721.525,0,99.23348,,
	08/23/2022 12:54:45.435,1.63806e+06,1711.36,198.00,6.00,-0.001060075,2.49999,-0.00265018,0.0005077053,0.000503876,0.001673944,0.001453972,1724.474,1711.096,0,99.24577,,
	08/23/2022 14:48:43.614,1.6449e+06,1700.02,200.00,6.00,-0.001060054,2.499994,-0.00265013,0.0005042616,0.000500506,0.001662687,0.001444075,1712.686,1699.762,0,99.25522,,
	08/23/2022 16:41:58.686,1.65169e+06,1688.97,202.00,6.00,-0.001060091,2.5,-0.00265023,0.0005012907,0.000497297,0.001652979,0.001434687,1702.648,1688.75,0,99.20332,,
	08/23/2022 18:34:27.865,1.65844e+06,1678.47,204.00,6.00,-0.001060111,2.49996,-0.00265024,0.0004979041,0.0004941829,0.001641846,0.001425545,1691.19,1678.194,0,99.25264,,
	08/23/2022 20:26:15.506,1.66515e+06,1668.07,206.00,6.00,-0.001060084,2.499968,-0.00265018,0.000494725,0.0004911089,0.001631345,0.001416638,1680.355,1667.784,0,99.26907,,
	08/23/2022 22:17:20.453,1.67181e+06,1657.2,208.00,6.00,-0.001059813,2.499987,-0.00264952,0.000491481,0.0004878545,0.001620713,0.001407093,1669.306,1656.975,0,99.26212,,
	08/24/2022 00:07:39.274,1.67843e+06,1646.35,210.00,6.00,-0.001059864,2.499926,-0.00264958,0.0004881296,0.0004847059,0.001609731,0.001397851,1657.954,1646.113,0,99.29861,,
	08/24/2022 01:57:13.864,1.68501e+06,1634.65,212.00,6.00,-0.001060165,2.5,-0.00265041,0.0004847972,0.0004812793,0.001598806,0.001387842,1646.643,1634.395,0,99.27436,,
	08/24/2022 03:46:07.126,1.69154e+06,1624.85,214.00,6.00,-0.00106011,2.499985,-0.00265026,0.0004818378,0.0004783339,0.001589101,0.001379265,1636.524,1624.645,0,99.2728,,
	08/24/2022 05:34:19.388,1.69803e+06,1615.38,216.00,6.00,-0.001059878,2.49999,-0.00264968,0.0004787924,0.0004755511,0.001579115,0.001371085,1626.272,1615.162,0,99.32302,,
	08/24/2022 07:21:52.926,1.70448e+06,1605.1,218.00,6.00,-0.001059855,2.499987,-0.00264962,0.0004759033,0.0004725335,0.001569614,0.001362299,1616.429,1604.87,0,99.29192,,
	08/24/2022 09:08:47.021,1.7109e+06,1595.56,220.00,6.00,-0.001059849,2.499981,-0.0026496,0.0004730087,0.0004696843,0.001560114,0.00135394,1606.451,1595.322,0,99.29718,,
	08/24/2022 10:55:03.661,1.71728e+06,1586.23,222.00,6.00,-0.001059839,2.499992,-0.00264959,0.0004702685,0.0004670041,0.001551114,0.001346114,1597.293,1585.975,0,99.30583,,
	08/24/2022 12:40:45.298,1.72362e+06,1576.98,224.00,6.00,-0.0010601,2.499975,-0.00265022,0.000467769,0.0004642841,0.001542896,0.00133824,1588.775,1576.76,0,99.255,,
	08/24/2022 14:25:50.723,1.72992e+06,1568.39,226.00,6.00,-0.0010601,2.499968,-0.00265022,0.0004650458,0.0004617545,0.001533913,0.001330827,1579.372,1568.146,0,99.29226,,
	08/24/2022 16:10:18.675,1.73619e+06,1558.74,228.00,6.00,-0.001060052,2.5,-0.00265013,0.000462131,0.0004589123,0.001524302,0.001322521,1569.657,1558.497,0,99.30352,,
	08/24/2022 17:54:09.979,1.74242e+06,1549.66,230.00,6.00,-0.00106013,2.49999,-0.00265031,0.000459569,0.0004562687,0.001515923,0.00131484,1560.929,1549.455,0,99.28188,,
	08/24/2022 19:37:24.727,1.74862e+06,1541.06,232.00,6.00,-0.001060089,2.499992,-0.00265021,0.0004569642,0.0004537213,0.001507313,0.001307369,1552.078,1540.845,0,99.29033,,
	08/24/2022 21:20:04.241,1.75478e+06,1531.77,234.00,6.00,-0.001059849,2.499992,-0.00264961,0.0004541842,0.0004509775,0.001498205,0.001299343,1542.591,1531.526,0,99.29397,,
	08/24/2022 23:02:05.951,1.7609e+06,1522.38,236.00,6.00,-0.001059864,2.49999,-0.00264965,0.0004514515,0.0004481804,0.001489231,0.001291142,1533.402,1522.133,0,99.27544,,
	08/25/2022 00:43:29.762,1.76698e+06,1513.17,238.00,6.00,-0.00105989,2.499994,-0.00264972,0.0004486128,0.0004454476,0.001479932,0.001283151,1523.765,1512.93,0,99.29446,,
	08/25/2022 02:24:19.309,1.77303e+06,1505.18,240.00,6.00,-0.001059868,2.499994,-0.00264966,0.000446168,0.0004430719,0.001471914,0.001276208,1515.393,1504.925,0,99.30608,,
	08/25/2022 04:04:32.644,1.77904e+06,1496.12,242.00,6.00,-0.001060132,2.499989,-0.00265032,0.00044344,0.0004404336,0.001462951,0.001268496,1505.957,1495.923,0,99.32204,,
	08/25/2022 05:44:13.031,1.78502e+06,1487.68,244.00,6.00,-0.001059908,2.49999,-0.00264976,0.0004408791,0.000437953,0.001454517,0.001261235,1497.48,1487.44,0,99.3363,,
	08/25/2022 07:23:22.340,1.79097e+06,1480.35,246.00,6.00,-0.001059918,2.499989,-0.00264978,0.0004386948,0.0004357813,0.001447354,0.001254921,1490.045,1480.11,0,99.33585,,
	08/25/2022 09:01:58.398,1.79689e+06,1472.73,248.00,6.00,-0.001059883,2.49999,-0.0026497,0.0004362425,0.0004335282,0.001439263,0.001248315,1481.645,1472.505,0,99.3778,,
	08/25/2022 10:40:07.912,1.80278e+06,1465.81,250.00,6.00,-0.001060052,2.499987,-0.00265012,0.0004343285,0.0004315243,0.001433003,0.001242495,1475.145,1465.597,0,99.35434,,
	08/25/2022 12:17:48.145,1.80864e+06,1459.46,252.00,6.00,-0.001060058,2.499996,-0.00265014,0.0004320335,0.0004296876,0.001425387,0.001237258,1467.361,1459.251,0,99.45701,,
	08/25/2022 13:55:03.365,1.81448e+06,1450.25,254.00,6.00,-0.001060012,2.499992,-0.00265002,0.0004300506,0.0004269634,0.001418883,0.001229229,1460.582,1450.018,0,99.28213,,
	08/25/2022 15:31:46.133,1.82028e+06,1444.56,256.00,6.00,-0.001060033,2.499979,-0.00265006,0.0004281249,0.000425242,0.001412515,0.001224289,1454.047,1444.202,0,99.32663,,
	08/25/2022 17:07:57.255,1.82605e+06,1435.22,258.00,6.00,-0.001060051,2.499994,-0.00265012,0.0004254763,0.000422507,0.001403835,0.00121622,1445.044,1434.89,0,99.30212,,
	08/25/2022 18:43:33.942,1.83179e+06,1427.41,260.00,6.00,-0.001060049,2.499996,-0.00265012,0.0004231906,0.0004202132,0.001396301,0.0012095,1437.27,1427.116,0,99.29645,,
	08/25/2022 20:18:39.590,1.83749e+06,1419.45,262.00,6.00,-0.001060088,2.499998,-0.00265022,0.0004209439,0.0004179216,0.001388979,0.001202871,1429.655,1419.245,0,99.28201,,
	08/25/2022 21:53:13.543,1.84317e+06,1411.89,264.00,6.00,-0.001060084,2.499998,-0.00265021,0.0004184484,0.0004156732,0.001380737,0.001196267,1421.203,1411.595,0,99.33678,,
	08/25/2022 23:27:19.113,1.84881e+06,1404.32,266.00,6.00,-0.001060084,2.499998,-0.00265021,0.0004163685,0.0004134539,0.001373906,0.001189757,1414.111,1404.05,0,99.29999,,
	08/26/2022 01:00:54.207,1.85443e+06,1397.64,268.00,6.00,-0.001059853,2.499998,-0.00264963,0.0004141039,0.000411446,0.001366472,0.001183892,1406.475,1397.479,0,99.35815,,
	08/26/2022 02:34:04.950,1.86002e+06,1390.8,270.00,6.00,-0.00105988,2.5,-0.0026497,0.0004123212,0.0004094132,0.001360621,0.001177956,1400.472,1390.62,0,99.29472,,
	08/26/2022 04:06:45.867,1.86558e+06,1383.82,272.00,6.00,-0.001059927,2.5,-0.00264982,0.00041012,0.0004073574,0.001353378,0.001171951,1392.917,1383.637,0,99.32639,,
	08/26/2022 05:38:56.601,1.87111e+06,1376.12,274.00,6.00,-0.001060149,2.499992,-0.00265036,0.0004078662,0.0004051239,0.001345947,0.001165402,1385.248,1375.922,0,99.32764,,
	08/26/2022 07:10:38.148,1.87661e+06,1368.54,276.00,6.00,-0.001059853,2.49999,-0.00264962,0.0004057199,0.0004029275,0.001338901,0.001159073,1378.049,1368.343,0,99.31174,,
	08/26/2022 08:41:54.420,1.88209e+06,1362.71,278.00,6.00,-0.001060151,2.499994,-0.00265037,0.000404041,0.0004012324,0.001333365,0.001154052,1372.337,1362.526,0,99.30487,,
	08/26/2022 10:12:43.029,1.88753e+06,1355.51,280.00,6.00,-0.001060107,2.499987,-0.00265025,0.0004018421,0.0003991104,0.001326131,0.001147918,1364.858,1355.316,0,99.32022,,
	08/26/2022 11:43:05.632,1.89296e+06,1349.71,282.00,6.00,-0.001060107,2.499987,-0.00265025,0.0004001517,0.0003974108,0.001320597,0.001142986,1359.173,1349.535,0,99.31503,,
	08/26/2022 13:13:03.078,1.89835e+06,1343.55,284.00,6.00,-0.001060066,2.499987,-0.00265015,0.0003980939,0.0003955845,0.001313783,0.001137638,1352.108,1343.377,0,99.36966,,
	08/26/2022 14:42:36.937,1.90373e+06,1338.32,286.00,6.00,-0.001060155,2.499975,-0.00265036,0.0003964344,0.0003940443,0.001308303,0.001133192,1346.533,1338.145,0,99.39712,,
	08/26/2022 16:11:47.472,1.90908e+06,1331.49,288.00,6.00,-0.001060063,2.499998,-0.00265016,0.0003945723,0.0003920132,0.001302143,0.001127268,1340.167,1331.318,0,99.35142,,
	08/26/2022 17:40:31.400,1.9144e+06,1324.4,290.00,6.00,-0.001060026,2.499901,-0.00264996,0.0003925927,0.0003899054,0.001295632,0.00112111,1333.4,1324.147,0,99.31548,,
	08/26/2022 19:08:48.288,1.9197e+06,1318.42,292.00,6.00,-0.001060031,2.5,-0.00265008,0.0003907185,0.0003881632,0.001289543,0.001116047,1327.02,1318.229,0,99.34599,,
	08/26/2022 20:36:37.952,1.92497e+06,1311.73,294.00,6.00,-0.001060135,2.499954,-0.00265029,0.0003886761,0.0003861999,0.00128278,0.001110281,1320.139,1311.478,0,99.36291,,
	08/26/2022 22:04:01.318,1.93021e+06,1304.67,296.00,6.00,-0.001059849,2.499958,-0.00264958,0.0003866389,0.000384096,0.001276058,0.001104115,1313.249,1304.459,0,99.34231,,
	08/26/2022 23:30:56.919,1.93543e+06,1297.92,298.00,6.00,-0.001059821,2.499994,-0.00264955,0.000384563,0.0003820758,0.001269246,0.00109822,1306.207,1297.69,0,99.35324,,
	08/27/2022 00:57:26.609,1.94062e+06,1291.03,300.00,6.00,-0.001060185,2.49999,-0.00265045,0.0003826508,0.0003801036,0.001262937,0.001092444,1299.643,1290.771,0,99.33434,,
	08/27/2022 02:23:30.389,1.94578e+06,1284.83,302.00,6.00,-0.001060151,2.499996,-0.00265037,0.0003809055,0.0003782965,0.001257212,0.001087192,1293.705,1284.646,0,99.31506,,
	08/27/2022 03:49:08.788,1.95092e+06,1278.85,304.00,6.00,-0.001060137,2.499975,-0.00265032,0.0003789483,0.0003765333,0.001250755,0.001082005,1287.066,1278.63,0,99.3627,,
	08/27/2022 05:14:23.201,1.95604e+06,1272.85,306.00,6.00,-0.001060162,2.499989,-0.00265039,0.000377194,0.0003747531,0.001244981,0.001076844,1281.124,1272.608,0,99.35287,,
	08/27/2022 06:39:15.130,1.96113e+06,1266.85,308.00,6.00,-0.001060186,2.5,-0.002650465,0.0003754939,0.0003729461,0.001239378,0.001071585,1275.371,1266.637,0,99.32149,,
	08/27/2022 08:03:43.406,1.9662e+06,1261.58,310.00,6.00,-0.001059867,2.5,-0.00264967,0.000373791,0.0003713688,0.001233756,0.001066973,1269.565,1261.382,0,99.35199,,
	08/27/2022 09:27:49.757,1.97124e+06,1256.1,312.00,6.00,-0.001059887,2.499983,-0.0026497,0.000372136,0.0003697499,0.001228319,0.001062263,1263.948,1255.905,0,99.35882,,
	08/27/2022 10:51:35.549,1.97627e+06,1251.32,314.00,6.00,-0.001060141,2.499996,-0.00265035,0.0003706613,0.0003684213,0.001223461,0.001058416,1258.908,1251.1,0,99.39567,,
	08/27/2022 12:15:02.038,1.98127e+06,1245.79,316.00,6.00,-0.001060102,2.499994,-0.00265025,0.0003692379,0.0003667836,0.001218776,0.001053678,1254.101,1245.584,0,99.33528,,
	08/27/2022 13:38:07.304,1.98626e+06,1241.3,318.00,6.00,-0.001060079,2.499996,-0.00265019,0.0003676862,0.0003654561,0.001213613,0.001049775,1248.804,1241.092,0,99.39348,,
	08/27/2022 15:00:52.324,1.99122e+06,1236.11,320.00,6.00,-0.001060077,2.499992,-0.00265018,0.0003662196,0.0003639379,0.00120882,0.001045363,1243.814,1235.918,0,99.37697,,
	08/27/2022 16:23:16.922,1.99617e+06,1230.64,322.00,6.00,-0.001060046,2.499977,-0.00265009,0.0003645842,0.0003623116,0.001203416,0.00104067,1238.268,1230.421,0,99.37666,,
	08/27/2022 17:45:19.427,2.00109e+06,1225.09,324.00,6.00,-0.001059991,2.499985,-0.00264996,0.0003629604,0.0003606634,0.001198067,0.001035876,1232.694,1224.863,0,99.36716,,
	08/27/2022 19:07:00.335,2.00599e+06,1219.83,326.00,6.00,-0.001060017,2.499998,-0.00265004,0.0003613743,0.0003591287,0.001192838,0.001031373,1227.386,1219.621,0,99.37859,,
	08/27/2022 20:28:18.319,2.01087e+06,1214.05,328.00,6.00,-0.00106016,2.499998,-0.0026504,0.0003597645,0.0003574483,0.001187547,0.001026478,1221.939,1213.825,0,99.35619,,
	08/27/2022 21:49:12.441,2.01572e+06,1208.19,330.00,6.00,-0.001059816,2.499969,-0.00264951,0.0003579412,0.0003556982,0.001181541,0.001021346,1215.708,1207.982,0,99.37334,,
	08/27/2022 23:09:44.465,2.02056e+06,1202.57,332.00,6.00,-0.001059841,2.5,-0.0026496,0.0003563295,0.00035404,0.001176238,0.001016516,1210.234,1202.364,0,99.35745,,
	08/28/2022 00:29:55.994,2.02537e+06,1197.53,334.00,6.00,-0.001060125,2.499968,-0.00265028,0.0003548192,0.0003526056,0.001171268,0.001012339,1205.149,1197.408,0,99.37613,,
	08/28/2022 01:49:45.599,2.03016e+06,1192.09,336.00,6.00,-0.001059846,2.499987,-0.0026496,0.0003532007,0.000350909,0.001165921,0.001007393,1199.661,1191.917,0,99.35114,,
	08/28/2022 03:09:14.641,2.03493e+06,1187.54,338.00,6.00,-0.001059859,2.499998,-0.00264965,0.0003517214,0.0003495677,0.001161057,0.00100348,1194.651,1187.356,0,99.38765,,
	08/28/2022 04:28:24.053,2.03968e+06,1182.56,340.00,6.00,-0.001059807,2.49999,-0.00264951,0.0003501962,0.0003481038,0.001156039,0.0009991988,1189.421,1182.322,0,99.40248,,
	08/28/2022 05:47:13.770,2.04441e+06,1177.44,342.00,6.00,-0.001060137,2.499989,-0.00265033,0.0003487752,0.0003466687,0.001151362,0.0009950512,1184.625,1177.242,0,99.39603,,
	08/28/2022 07:05:45.511,2.04912e+06,1172.77,344.00,6.00,-0.001059837,2.499987,-0.00264958,0.0003474481,0.0003452115,0.001146983,0.0009907976,1180.143,1172.547,0,99.35629,,
	08/28/2022 08:23:56.123,2.05381e+06,1167.75,346.00,6.00,-0.001059887,2.499987,-0.0026497,0.0003459174,0.0003437322,0.001141935,0.0009865153,1174.893,1167.541,0,99.36829,,
	08/28/2022 09:41:47.248,2.05848e+06,1162.74,348.00,6.00,-0.001060155,2.499996,-0.00265038,0.0003444617,0.000342303,0.001137134,0.0009823692,1169.93,1162.557,0,99.37331,,
	08/28/2022 10:59:19.790,2.06313e+06,1158.1,350.00,6.00,-0.001060079,2.499989,-0.00265019,0.0003430702,0.0003409685,0.001132541,0.0009784508,1165.23,1157.895,0,99.38741,,
	08/28/2022 12:16:33.567,2.06777e+06,1153.78,352.00,6.00,-0.001060046,2.499994,-0.00265011,0.0003417708,0.0003396989,0.001128257,0.0009747998,1160.792,1153.581,0,99.39378,,
	08/28/2022 13:33:31.486,2.07238e+06,1150.08,354.00,6.00,-0.001060096,2.499996,-0.00265024,0.0003406272,0.0003386027,0.001124453,0.0009715953,1156.914,1149.877,0,99.40566,,
	08/28/2022 14:50:14.351,2.07699e+06,1146.16,356.00,6.00,-0.001060057,2.499987,-0.00265013,0.0003393619,0.0003374412,0.001120261,0.0009681946,1152.567,1145.954,0,99.43404,,
	08/28/2022 16:06:38.753,2.08157e+06,1141.31,358.00,6.00,-0.00106006,2.499994,-0.00265014,0.000338085,0.0003360111,0.001116099,0.0009640525,1148.29,1141.128,0,99.38657,,
	08/28/2022 17:22:45.235,2.08614e+06,1137.27,360.00,6.00,-0.001060118,2.499969,-0.00265026,0.0003368023,0.0003348388,0.001111863,0.0009606266,1143.925,1137.068,0,99.41702,,
	08/28/2022 18:38:32.743,2.09068e+06,1131.95,362.00,6.00,-0.001060144,2.499983,-0.00265034,0.0003354121,0.0003332791,0.001107285,0.0009561116,1139.208,1131.771,0,99.36405,,
	08/28/2022 19:53:59.088,2.09521e+06,1126.73,364.00,6.00,-0.001060099,2.499994,-0.00265024,0.0003337942,0.0003317323,0.001101939,0.0009516235,1133.642,1126.547,0,99.38226,,
	08/28/2022 21:09:06.864,2.09972e+06,1122.16,366.00,6.00,-0.001060109,2.499979,-0.00265025,0.0003324718,0.0003303957,0.001097598,0.0009477499,1129.22,1121.978,0,99.37556,,
	08/28/2022 22:23:55.006,2.10421e+06,1117.44,368.00,6.00,-0.001060146,2.499975,-0.00265034,0.0003309798,0.0003289828,0.001092674,0.0009436175,1124.193,1117.25,0,99.39664,,
	08/28/2022 23:38:24.600,2.10868e+06,1112.88,370.00,6.00,-0.001060149,2.499987,-0.00265036,0.0003296597,0.0003276494,0.00108832,0.0009397301,1119.651,1112.683,0,99.39016,,
	08/29/2022 00:52:37.120,2.11313e+06,1108.47,372.00,6.00,-0.001060124,2.499983,-0.00265029,0.0003284199,0.0003263548,0.001084241,0.000935954,1115.472,1108.251,0,99.37121,,
	08/29/2022 02:06:31.015,2.11756e+06,1103.96,374.00,6.00,-0.001059844,2.499996,-0.00264961,0.0003269319,0.0003249568,0.001079331,0.0009318977,1110.457,1103.759,0,99.39588,,
	08/29/2022 03:20:06.619,2.12198e+06,1099.53,376.00,6.00,-0.00105983,2.499987,-0.00264956,0.0003256506,0.0003236537,0.001075113,0.0009281221,1106.061,1099.317,0,99.38677,,
	08/29/2022 04:33:25.125,2.12638e+06,1094.96,378.00,6.00,-0.001060104,2.499975,-0.00265023,0.0003243989,0.0003223924,0.001070983,0.0009244353,1101.745,1094.791,0,99.38147,,
	08/29/2022 05:46:26.284,2.13076e+06,1090.68,380.00,6.00,-0.001060056,2.499987,-0.00265013,0.0003230648,0.0003211222,0.001066598,0.0009207472,1097.298,1090.501,0,99.39871,,
	08/29/2022 06:59:12.334,2.13512e+06,1087.32,382.00,6.00,-0.001059853,2.499966,-0.0026496,0.0003220235,0.000320083,0.00106317,0.0009177318,1093.73,1087.124,0,99.3974,,
	08/29/2022 08:11:42.580,2.13947e+06,1083.08,384.00,6.00,-0.001060118,2.499998,-0.00265029,0.0003208483,0.0003188692,0.00105929,0.0009141974,1089.733,1082.898,0,99.38318,,
	08/29/2022 09:23:57.286,2.14381e+06,1079.25,386.00,6.00,-0.001060151,2.499998,-0.00265038,0.0003197478,0.0003177663,0.001055664,0.0009109883,1086.027,1079.095,0,99.3803,,
	08/29/2022 10:35:55.064,2.14813e+06,1075.47,388.00,6.00,-0.001060137,2.499979,-0.00265032,0.000318483,0.0003166043,0.001051483,0.000907611,1081.767,1075.268,0,99.41012,,
	08/29/2022 11:47:37.429,2.15243e+06,1071.08,390.00,6.00,-0.001060132,2.499956,-0.00265028,0.0003174106,0.000315358,0.001047958,0.000904039,1078.073,1070.905,0,99.35333,,
	08/29/2022 12:59:04.058,2.15672e+06,1067.64,392.00,6.00,-0.001060042,2.499992,-0.0026501,0.0003161767,0.0003143241,0.001043833,0.0009009929,1073.833,1067.475,0,99.41405,,
	08/29/2022 14:10:16.889,2.16099e+06,1063.81,394.00,6.00,-0.001060077,2.499981,-0.00265017,0.0003151683,0.0003131985,0.001040504,0.0008977616,1070.454,1063.611,0,99.37498,,
	08/29/2022 15:21:14.336,2.16525e+06,1060.16,396.00,6.00,-0.001060068,2.499992,-0.00265016,0.0003140048,0.000312115,0.001036674,0.0008946282,1066.468,1059.961,0,99.39816,,
	08/29/2022 16:31:58.888,2.16949e+06,1057.1,398.00,6.00,-0.001060037,2.499987,-0.00265008,0.0003133538,0.00031123,0.001034452,0.0008920817,1064.216,1056.98,0,99.32223,,
	08/29/2022 17:42:26.789,2.17372e+06,1052.48,400.00,6.00,-0.001059994,2.499931,-0.00264991,0.0003117192,0.0003098494,0.001029143,0.0008880449,1058.71,1052.306,0,99.40019,,
	08/29/2022 18:52:37.335,2.17793e+06,1048.34,402.00,6.00,-0.001060022,2.499994,-0.00265005,0.0003105469,0.000308633,0.001025252,0.0008844995,1054.735,1048.13,0,99.38369,,
	08/29/2022 20:02:32.483,2.18212e+06,1044.62,404.00,6.00,-0.001060116,2.5,-0.00265029,0.0003093388,0.000307548,0.001021272,0.0008813367,1050.566,1044.443,0,99.42109,,
	08/29/2022 21:12:11.238,2.1863e+06,1040.44,406.00,6.00,-0.001060031,2.499998,-0.00265008,0.0003081359,0.0003063162,0.00101731,0.0008777477,1046.561,1040.224,0,99.40945,,
	08/29/2022 22:21:33.658,2.19047e+06,1036.35,408.00,6.00,-0.00106008,2.49999,-0.00265019,0.000306992,0.0003051239,0.001013543,0.0008742693,1042.639,1036.165,0,99.39148,,
	08/29/2022 23:30:39.917,2.19461e+06,1032.47,410.00,6.00,-0.00106011,2.499973,-0.00265025,0.0003057885,0.0003039882,0.001009572,0.0008709659,1038.539,1032.291,0,99.41125,,
	08/30/2022 00:39:32.046,2.19874e+06,1028.69,412.00,6.00,-0.001060086,2.499987,-0.0026502,0.0003047415,0.0003028763,0.00100612,0.0008677456,1035.037,1028.538,0,99.38795,,
	08/30/2022 01:48:08.371,2.20286e+06,1024.88,414.00,6.00,-0.001060128,2.499977,-0.0026503,0.0003036181,0.0003017525,0.001002427,0.0008644808,1031.207,1024.738,0,99.38556,,
	08/30/2022 02:56:27.897,2.20696e+06,1020.62,416.00,6.00,-0.001060165,2.499987,-0.0026504,0.0003023492,0.0003005017,0.00099823,0.0008608499,1026.88,1020.445,0,99.38897,,
	08/30/2022 04:04:33.747,2.21105e+06,1017.56,418.00,6.00,-0.001060135,2.499977,-0.00265031,0.0003013414,0.0002995923,0.0009949208,0.0008581849,1023.487,1017.368,0,99.41958,,
	08/30/2022 17:58:19.865,2.2151e+06,1002.91,420.00,6.00,-0.001060125,2.499989,-0.0026503,0.0002972321,0.0002952918,0.0009815852,0.0008451203,1009.559,1002.772,0,99.34722,,
	08/30/2022 19:05:03.781,2.21911e+06,997.0561,422.00,6.00,-0.001060097,2.499998,-0.00265024,0.000295193,0.0002935552,0.0009745789,0.0008403548,1002.589,996.8986,0,99.44518,,
	08/30/2022 20:11:37.350,2.2231e+06,994.8122,424.00,6.00,-0.001060113,2.5,-0.00265028,0.0002946049,0.0002929056,0.0009725451,0.0008385715,1000.586,994.6599,0,99.42321,,
	08/30/2022 21:17:59.306,2.22708e+06,991.6516,426.00,6.00,-0.001060157,2.499973,-0.00265036,0.0002936799,0.0002919716,0.0009694646,0.0008359285,997.4616,991.5012,0,99.4183,,
	08/30/2022 22:24:10.125,2.23106e+06,989.1079,428.00,6.00,-0.001060119,2.499989,-0.00265029,0.0002929104,0.0002912236,0.0009669567,0.0008337538,994.851,988.9584,0,99.42413,,
	08/30/2022 23:30:07.319,2.23501e+06,985.4353,430.00,6.00,-0.001060149,2.499998,-0.00265037,0.0002918043,0.0002900776,0.0009633026,0.0008304833,991.1454,985.2704,0,99.40829,,
	08/31/2022 00:35:51.569,2.23896e+06,982.3234,432.00,6.00,-0.001059837,2.5,-0.00264959,0.0002909454,0.0002891653,0.0009604608,0.0008278227,988.2074,982.1754,0,99.38816,,
	08/31/2022 01:41:23.208,2.24289e+06,979.2090,434.00,6.00,-0.00105989,2.499992,-0.00264972,0.0002899067,0.0002882614,0.0009570234,0.0008252349,984.6478,979.0533,0,99.43246,,
	08/31/2022 02:46:42.439,2.24681e+06,975.9656,436.00,6.00,-0.001059921,2.499992,-0.00264979,0.0002889923,0.0002872973,0.0009539904,0.0008224357,981.5475,975.8271,0,99.41348,,
	08/31/2022 03:51:48.870,2.25071e+06,972.9359,438.00,6.00,-0.001059835,2.499989,-0.00264958,0.0002881073,0.0002864197,0.0009510922,0.0008199019,978.5806,972.7935,0,99.41424,,
	08/31/2022 04:56:41.719,2.25461e+06,969.1111,440.00,6.00,-0.001060157,2.499979,-0.00265037,0.0002870844,0.000285322,0.0009477036,0.0008167095,975.1094,968.9509,0,99.38609,,
	08/31/2022 06:01:22.013,2.25849e+06,966.5463,442.00,6.00,-0.001059874,2.499935,-0.00264962,0.0002861189,0.0002845239,0.0009445205,0.0008143859,971.8163,966.4067,0,99.44254,,
	08/31/2022 07:05:50.088,2.26235e+06,963.4040,444.00,6.00,-0.001059897,2.499994,-0.00264974,0.0002852553,0.0002835949,0.0009416685,0.0008117133,968.8908,963.2627,0,99.4179,,
	08/31/2022 08:10:05.115,2.26621e+06,959.9486,446.00,6.00,-0.001060135,2.499994,-0.00265033,0.0002842977,0.0002825947,0.0009384854,0.0008088217,965.6276,959.7916,0,99.40099,,
	08/31/2022 09:14:07.049,2.27005e+06,957.1222,448.00,6.00,-0.001059918,2.499996,-0.00264979,0.0002833638,0.0002817539,0.0009354295,0.0008063693,962.4314,956.9938,0,99.43189,,
	08/31/2022 10:17:55.974,2.27388e+06,953.6052,450.00,6.00,-0.001060127,2.499977,-0.00265029,0.0002823537,0.0002807615,0.0009320731,0.0008034981,959.0148,953.4605,0,99.4361,,
	08/31/2022 11:21:32.981,2.2777e+06,950.4901,452.00,6.00,-0.001060124,2.499969,-0.00265028,0.0002815073,0.0002798231,0.000929277,0.000800813,956.1693,950.3377,0,99.4017,,
	08/31/2022 12:24:59.641,2.2815e+06,948.2686,454.00,6.00,-0.001059989,2.499977,-0.00264995,0.0002808275,0.0002791911,0.0009270541,0.0007989838,953.8258,948.0954,0,99.41727,,
	08/31/2022 13:28:16.270,2.2853e+06,945.6749,456.00,6.00,-0.001060093,2.499987,-0.00265022,0.0002801494,0.0002784146,0.0009247722,0.0007967091,951.4801,945.5149,0,99.38077,,
	08/31/2022 14:31:21.699,2.28909e+06,942.7787,458.00,6.00,-0.001060105,2.499987,-0.00265025,0.0002791739,0.0002775785,0.0009215776,0.000794302,948.1791,942.6333,0,99.42851,,
	08/31/2022 15:34:14.288,2.29286e+06,939.6446,460.00,6.00,-0.001060065,2.499981,-0.00265014,0.0002782274,0.0002766354,0.0009184238,0.0007915659,944.9952,939.4939,0,99.42779,,
	08/31/2022 16:36:54.696,2.29662e+06,936.4739,462.00,6.00,-0.001060026,2.49999,-0.00265005,0.0002773184,0.0002756993,0.0009154293,0.0007888598,941.9175,936.3111,0,99.41618,,
	08/31/2022 17:39:23.144,2.30037e+06,933.6829,464.00,6.00,-0.001060047,2.499987,-0.0026501,0.0002764823,0.0002749006,0.0009126762,0.0007865404,939.065,933.5537,0,99.42794,,
	08/31/2022 18:41:38.955,2.3041e+06,930.4765,466.00,6.00,-0.001060027,2.499994,-0.00265006,0.0002753618,0.0002739447,0.0009089683,0.0007837562,935.2277,930.3389,0,99.48537,,
	08/31/2022 19:43:44.379,2.30783e+06,927.1842,468.00,6.00,-0.001060001,2.499994,-0.00265,0.0002745684,0.0002729657,0.0009063396,0.0007809196,932.5177,927.0374,0,99.4163,,
	08/31/2022 20:45:34.745,2.31154e+06,923.9109,470.00,6.00,-0.00106003,2.499996,-0.00265007,0.0002735998,0.0002720018,0.0009031642,0.0007781549,929.2748,923.7626,0,99.41592,,
	08/31/2022 21:47:13.435,2.31524e+06,921.1906,472.00,6.00,-0.001060031,2.499989,-0.00265007,0.0002728924,0.0002712129,0.000900803,0.0007758522,926.8453,921.0556,0,99.38455,,
	08/31/2022 22:48:41.128,2.31893e+06,918.7601,474.00,6.00,-0.001060038,2.499994,-0.00265009,0.0002718636,0.000270493,0.0008974417,0.0007737812,923.3464,918.6179,0,99.49583,,
	08/31/2022 23:49:57.417,2.3226e+06,915.4524,476.00,6.00,-0.001060017,2.499992,-0.00265003,0.0002711393,0.0002695216,0.0008950117,0.0007709506,920.8969,915.3152,0,99.40337,,
	09/01/2022 00:51:01.516,2.32627e+06,912.5175,478.00,6.00,-0.001060068,2.499998,-0.00265017,0.0002702065,0.0002686541,0.0008919378,0.0007684411,917.6703,912.3779,0,99.42546,,
	09/01/2022 01:51:53.283,2.32992e+06,909.4817,480.00,6.00,-0.001059918,2.5,-0.002649795,0.0002694062,0.0002677444,0.0008892884,0.0007657924,915.0171,909.3368,0,99.38318,,
	09/01/2022 02:52:34.080,2.33356e+06,907.0294,482.00,6.00,-0.001060068,2.499998,-0.00265017,0.0002685566,0.0002670486,0.0008864837,0.000763791,912.1372,906.886,0,99.43849,,
	09/01/2022 03:53:05.163,2.33719e+06,904.2010,484.00,6.00,-0.001060099,2.499985,-0.00265023,0.0002678423,0.0002662087,0.0008841326,0.0007613474,909.6734,904.0598,0,99.39008,,
	09/01/2022 04:53:24.321,2.34081e+06,901.4255,486.00,6.00,-0.001060012,2.5,-0.00265003,0.0002669769,0.0002653885,0.0008812749,0.0007589716,906.7204,901.3071,0,99.40502,,
	09/01/2022 05:53:34.667,2.34442e+06,899.1753,488.00,6.00,-0.001060063,2.499992,-0.00265015,0.0002662824,0.0002647193,0.0008790078,0.0007570624,904.3964,899.0324,0,99.41299,,
	09/01/2022 06:53:32.303,2.34802e+06,895.7567,490.00,6.00,-0.001060077,2.49999,-0.00265018,0.0002653101,0.000263719,0.0008757716,0.0007541529,901.1184,895.5918,0,99.4003,,
	09/01/2022 07:53:16.779,2.3516e+06,892.7432,492.00,6.00,-0.00106006,2.499998,-0.00265015,0.0002643636,0.0002628302,0.0008726695,0.0007515939,897.8592,892.5984,0,99.41998,,
	09/01/2022 08:52:50.743,2.35518e+06,890.2338,494.00,6.00,-0.001059971,2.499992,-0.00264992,0.0002635486,0.0002620874,0.0008699889,0.000749412,895.0846,890.0863,0,99.44557,,
	09/01/2022 09:52:15.866,2.35874e+06,888.4648,496.00,6.00,-0.001060005,2.499989,-0.00265,0.0002629325,0.0002615633,0.0008679328,0.0007479173,892.9981,888.3214,0,99.47926,,
	09/01/2022 10:51:32.371,2.3623e+06,885.3614,498.00,6.00,-0.001060035,2.49999,-0.00265008,0.0002623047,0.0002606532,0.0008658381,0.0007452935,890.9181,885.2039,0,99.37041,,
	09/01/2022 11:50:34.428,2.36584e+06,882.2101,500.00,6.00,-0.0010601,2.499987,-0.00265024,0.0002612219,0.0002597443,0.000862291,0.0007426507,887.2166,882.0677,0,99.43437,,
	09/01/2022 12:49:24.126,2.36937e+06,878.9451,502.00,6.00,-0.001060109,2.5,-0.00265027,0.0002604127,0.0002587791,0.0008596025,0.0007398445,884.4641,878.8114,0,99.3727,,
	09/01/2022 13:18:44.817,2.37113e+06,877.6894,503.00,6.00,-0.001060066,2.499989,-0.00265015,0.0002599121,0.0002584136,0.000857972,0.0007388045,882.7979,877.5472,0,99.42346,,