File: Cell-test-data/SiMP-LFP-SF10/JB2_SiMP-LFP-SF10_03C_Channel_86_StatisticByStep.CSV
Date_Time                    ,Test Time (s),Step Time (s),Cycle Index,Step Index,Current (A),Voltage (V),Power (W),Charge Capacity (Ah),Discharge Capacity (Ah),Charge Energy (Wh),Discharge Energy (Wh),Charge Time (s),Discharge Time (s),V_Max_On_Cycle (V),Coulombic Efficiency (%),mAh/g
	07/20/2022 02:34:40.598,43200,43200,1.00,1.00,0,0.2446756,0,0,0,0,0,0,0,0,0,,
	07/21/2022 15:30:03.713,176123,58047,1.00,3.00,-0.0001589981,2.499993,-0.000397494,0.003306544,0.002563256,0.01091521,0.00760898,74866.11,58039.46,0,77.52071,,
	07/22/2022 22:26:17.469,287497,52789,2.00,3.00,-0.000158989,2.499955,-0.000397465,0.002587095,0.002331125,0.008370554,0.006918355,58577.07,52782,0,90.1059,,
	07/24/2022 02:38:59.497,389059,48246.1,3.00,3.00,-0.0001589862,2.499984,-0.000397463,0.002354369,0.00213051,0.007603938,0.006320743,53308.7,48239.69,0,90.49175,,
	07/24/2022 06:12:55.410,401895,6002.8,4.00,6.00,-0.001060021,2.499986,-0.00265004,0.002011516,0.001767228,0.006622633,0.0051577,6832.087,6001.99,0,87.85553,,
	07/24/2022 09:26:55.856,413535,5683.83,5.00,6.00,-0.001059956,2.499972,-0.00264986,0.001753532,0.001673303,0.005763034,0.004879805,5955.829,5683.125,0,95.42472,,
	07/24/2022 12:32:47.807,424687,5454.76,6.00,6.00,-0.00106007,2.499944,-0.00265012,0.00167708,0.001605957,0.005512476,0.004681909,5696.403,5454.024,0,95.75915,,
	07/24/2022 15:31:48.542,435428,5260.51,7.00,6.00,-0.00106001,2.499904,-0.00264992,0.001613562,0.001548822,0.005304609,0.004515632,5479.504,5259.823,0,95.98775,,
	07/24/2022 18:24:56.150,445816,5093.88,8.00,6.00,-0.001060007,2.499955,-0.00264997,0.001558565,0.001499764,0.00512352,0.004372775,5292.939,5093.208,0,96.22723,,
	07/24/2022 21:11:54.084,455833,4913.43,9.00,6.00,-0.001060014,2.499993,-0.00265003,0.001502968,0.001446536,0.004942091,0.004213002,5103.823,4912.79,0,96.24534,,
	07/24/2022 23:53:18.941,465518,4756.47,10.00,6.00,-0.001060012,2.499957,-0.00264998,0.001451038,0.001400332,0.004773869,0.00407608,4927.641,4755.85,0,96.50557,,
	07/25/2022 02:29:43.102,474903,4611.33,11.00,6.00,-0.001060005,2.49994,-0.00264995,0.001405078,0.001357634,0.004623738,0.003949246,4772.17,4610.772,0,96.62339,,
	07/25/2022 05:01:28.506,484008,4477.52,12.00,6.00,-0.001059943,2.499984,-0.00264984,0.001362364,0.001318155,0.004484415,0.003831677,4627.2,4476.941,0,96.75499,,
	07/25/2022 07:28:53.374,492853,4350.39,13.00,6.00,-0.001059961,2.499928,-0.00264983,0.001323119,0.00128075,0.004356436,0.003720138,4493.877,4349.776,0,96.79779,,
	07/25/2022 09:52:12.577,501452,4232.22,14.00,6.00,-0.001060015,2.499972,-0.00265001,0.00128552,0.001245982,0.004233708,0.003616325,4366.329,4231.722,0,96.92432,,
	07/25/2022 12:11:31.216,509811,4112.15,15.00,6.00,-0.001059986,2.499959,-0.00264992,0.001250075,0.001210589,0.004117995,0.003510057,4245.914,4111.594,0,96.84137,,
	07/25/2022 14:27:05.329,517945,4005.32,16.00,6.00,-0.001060012,2.499957,-0.00264998,0.001215545,0.001179258,0.004005771,0.00341662,4128.191,4004.786,0,97.0148,,
	07/25/2022 16:39:16.882,525876,3903.56,17.00,6.00,-0.001060035,2.499997,-0.00265008,0.001185966,0.001149278,0.003907994,0.003327328,4027.406,3903.077,0,96.90646,,
	07/25/2022 18:47:47.478,533587,3791.66,18.00,6.00,-0.001060032,2.499988,-0.00265007,0.00115386,0.001116347,0.003803401,0.003227924,3918.419,3791.173,0,96.74886,,
	07/25/2022 20:52:19.211,541059,3672.56,19.00,6.00,-0.001060079,2.499974,-0.00265017,0.001118462,0.001081222,0.003689043,0.003120815,3798.596,3672.031,0,96.67043,,
	07/25/2022 22:52:58.028,548297,3557.61,20.00,6.00,-0.001059982,2.49997,-0.00264992,0.001083832,0.00104737,0.003577409,0.003018146,3680.658,3557.146,0,96.63583,,
	07/26/2022 00:49:50.977,555310,3444.41,21.00,6.00,-0.001060018,2.499946,-0.00264999,0.001050458,0.00101405,0.00346924,0.002917634,3567.978,3443.988,0,96.53408,,
	07/26/2022 02:42:58.261,562098,3331.82,22.00,6.00,-0.001059926,2.499986,-0.0026498,0.001017219,0.0009808935,0.003361549,0.002817551,3454.985,3331.374,0,96.42894,,
	07/26/2022 04:32:18.636,568658,3217.89,23.00,6.00,-0.001060002,2.49997,-0.00264997,0.0009839152,0.0009473555,0.003253583,0.002716905,3341.981,3217.468,0,96.28426,,
	07/26/2022 06:17:51.369,574991,3105.14,24.00,6.00,-0.001059949,2.499938,-0.00264981,0.0009501487,0.0009141586,0.003143883,0.002617456,3227.104,3104.73,0,96.21217,,
	07/26/2022 07:59:39.076,581098,2992.26,25.00,6.00,-0.001059949,2.499997,-0.00264987,0.0009170893,0.0008809406,0.003036257,0.002518199,3114.989,2991.891,0,96.05833,,
	07/26/2022 09:37:40.100,586980,2879.77,26.00,6.00,-0.001060044,2.499991,-0.0026501,0.0008834727,0.0008478172,0.002926889,0.002419399,3000.823,2879.397,0,95.96416,,
	07/26/2022 11:12:02.699,592642,2771.63,27.00,6.00,-0.001059981,2.499978,-0.00264993,0.0008510197,0.0008159723,0.002820941,0.002324919,2890.545,2771.255,0,95.88172,,
	07/26/2022 12:42:51.582,598091,2664.67,28.00,6.00,-0.001060073,2.499988,-0.00265017,0.0008197139,0.0007845253,0.002718593,0.002231974,2783.801,2664.33,0,95.70721,,
	07/26/2022 14:10:11.866,603331,2562.08,29.00,6.00,-0.001060025,2.499993,-0.00265006,0.0007885442,0.0007543354,0.00261628,0.002142957,2677.804,2561.75,0,95.66178,,
	07/26/2022 15:34:16.724,608376,2466.26,30.00,6.00,-0.001060053,2.499991,-0.00265012,0.0007592188,0.0007260983,0.002519694,0.002060142,2578.205,2465.923,0,95.63756,,
	07/26/2022 16:55:04.813,613224,2367.22,31.00,6.00,-0.001060134,2.499993,-0.00265033,0.0007304241,0.0006969749,0.002424674,0.001974443,2480.483,2366.927,0,95.42058,,
	07/26/2022 18:12:25.248,617865,2265.06,32.00,6.00,-0.001059986,2.499986,-0.00264995,0.0006993649,0.0006668515,0.00232294,0.001885673,2374.996,2264.745,0,95.35101,,
	07/26/2022 19:26:10.648,622290,2158.49,33.00,6.00,-0.001060026,2.499993,-0.00265006,0.0006674309,0.0006354963,0.002218543,0.001792986,2266.537,2158.226,0,95.21529,,
	07/26/2022 20:36:27.195,626507,2057.67,34.00,6.00,-0.001060019,2.499923,-0.00264997,0.0006356376,0.0006058284,0.002115174,0.00170565,2158.551,2057.437,0,95.31035,,
	07/26/2022 21:43:32.164,630532,1964.51,35.00,6.00,-0.001060032,2.499951,-0.00265003,0.0006066746,0.0005783602,0.002020532,0.001625536,2060.177,1964.263,0,95.33284,,
	07/26/2022 22:47:40.234,634380,1878.15,36.00,6.00,-0.001060032,2.499991,-0.00265007,0.0005799541,0.0005529488,0.001932766,0.001551475,1969.612,1877.914,0,95.34355,,
	07/26/2022 23:48:55.162,638055,1793.79,37.00,6.00,-0.001060016,2.499999,-0.00265004,0.0005538143,0.0005281258,0.001846979,0.001479381,1880.815,1793.578,0,95.36154,,
	07/27/2022 00:47:26.364,641566,1714.57,38.00,6.00,-0.001059971,2.499974,-0.0026499,0.0005289207,0.0005047731,0.001765134,0.001411807,1796.37,1714.347,0,95.43455,,
	07/27/2022 01:43:20.485,644920,1636.95,39.00,6.00,-0.001060012,2.499999,-0.00265003,0.0005054646,0.0004819339,0.001687904,0.00134587,1716.871,1636.757,0,95.34473,,
	07/27/2022 02:36:44.749,648124,1565.45,40.00,6.00,-0.001059987,2.499911,-0.00264987,0.000482464,0.0004608793,0.001612148,0.001285213,1638.55,1565.266,0,95.52615,,
	07/27/2022 03:27:49.081,651188,1497.15,41.00,6.00,-0.00106004,2.499999,-0.0026501,0.000461345,0.0004407674,0.001542425,0.001227436,1566.927,1496.948,0,95.53964,,
	07/27/2022 04:16:37.012,654116,1430.72,42.00,6.00,-0.001059942,2.499993,-0.00264985,0.000440745,0.0004212062,0.001474404,0.001171384,1496.964,1430.531,0,95.56686,,
	07/27/2022 05:03:19.549,656919,1370.7,43.00,6.00,-0.00105997,2.499927,-0.00264985,0.0004214733,0.0004035387,0.00141072,0.001120865,1431.592,1370.538,0,95.74479,,
	07/27/2022 05:47:59.437,659599,1310.67,44.00,6.00,-0.001059963,2.499917,-0.00264982,0.000403044,0.0003858493,0.001349654,0.001070338,1368.972,1310.503,0,95.73379,,
	07/27/2022 06:30:43.832,662163,1254.69,45.00,6.00,-0.001059952,2.499991,-0.00264987,0.0003855308,0.0003693668,0.001291703,0.001023419,1309.468,1254.527,0,95.80733,,
	07/27/2022 07:11:40.573,664620,1202.58,46.00,6.00,-0.001059907,2.499988,-0.00264975,0.0003691748,0.0003540428,0.001237469,0.0009799704,1253.942,1202.433,0,95.90112,,
	07/27/2022 07:50:51.098,666971,1150.28,47.00,6.00,-0.001059975,2.49999,-0.00264993,0.0003533098,0.0003386542,0.001184751,0.0009362851,1200.051,1150.148,0,95.85189,,
	07/27/2022 08:28:21.820,669221,1102.16,48.00,6.00,-0.001059973,2.499995,-0.00264993,0.0003380892,0.0003244757,0.001134171,0.0008962078,1148.367,1102.036,0,95.97342,,
	07/27/2022 09:04:17.826,671377,1056.99,49.00,6.00,-0.001059917,2.499949,-0.00264974,0.000323507,0.000311169,0.001085716,0.000858607,1098.826,1056.853,0,96.1862,,
	07/27/2022 09:38:45.279,673445,1013.29,50.00,6.00,-0.001059954,2.499991,-0.00264988,0.0003103038,0.0002983078,0.001041785,0.0008223463,1053.953,1013.168,0,96.13412,,
	07/27/2022 10:11:47.863,675427,972.0746,51.00,6.00,-0.001059981,2.499995,-0.00264995,0.0002974595,0.0002861728,0.0009989828,0.0007882148,1010.315,971.9487,0,96.20566,,
	07/27/2022 10:43:29.270,677329,932.3926,52.00,6.00,-0.001059948,2.499967,-0.00264984,0.0002852372,0.0002745047,0.0009581765,0.0007554435,968.8362,932.2908,0,96.23737,,
	07/27/2022 11:13:51.477,679151,894.1339,53.00,6.00,-0.001059991,2.499999,-0.00264998,0.0002731929,0.000263244,0.0009179355,0.0007239084,927.8893,894.0377,0,96.35828,,
	07/27/2022 11:43:00.521,680900,858.9115,54.00,6.00,-0.001060015,2.499965,-0.00265,0.0002620222,0.0002528715,0.0008805806,0.000694892,889.966,858.8002,0,96.50768,,
	07/27/2022 12:10:58.019,682577,823.1419,55.00,6.00,-0.001060002,2.49998,-0.00264998,0.0002515074,0.000242342,0.0008454062,0.000665468,854.2008,823.0474,0,96.35579,,
	07/27/2022 12:37:43.732,684183,788.5384,56.00,6.00,-0.00106001,2.499894,-0.00264991,0.0002405782,0.0002321546,0.000808813,0.0006370399,817.0159,788.4418,0,96.49861,,
	07/27/2022 13:03:24.060,685723,757.2598,57.00,6.00,-0.00106003,2.499982,-0.00265006,0.0002305563,0.0002229513,0.0007752372,0.0006114276,782.9215,757.1608,0,96.70148,,
	07/27/2022 13:28:06.293,687206,729.4519,58.00,6.00,-0.001060029,2.499982,-0.00265005,0.0002216321,0.0002147631,0.0007452262,0.0005886638,752.6358,729.3576,0,96.90073,,
	07/27/2022 13:51:57.444,688637,704.8094,59.00,6.00,-0.001060143,2.49999,-0.00265035,0.0002138419,0.0002075199,0.0007189661,0.0005686032,726.1955,704.7271,0,97.04359,,
	07/27/2022 14:14:59.885,690019,680.8433,60.00,6.00,-0.001060079,2.499949,-0.00265014,0.0002065518,0.0002004673,0.0006943971,0.0005490165,701.4621,680.7693,0,97.05424,,
	07/27/2022 14:37:15.907,691355,657.9485,61.00,6.00,-0.001060093,2.499955,-0.00265018,0.0001996275,0.0001937229,0.0006710638,0.0005303933,677.9382,657.8694,0,97.04218,,
	07/27/2022 14:58:44.519,692644,634.3361,62.00,6.00,-0.00106015,2.499957,-0.00265033,0.0001926211,0.0001867735,0.0006474207,0.0005111858,654.1393,634.2624,0,96.96417,,
	07/27/2022 15:19:27.019,693886,612.5680,63.00,6.00,-0.001060065,2.499969,-0.00265013,0.0001854521,0.00018036,0.0006232393,0.0004934358,629.7963,612.4899,0,97.25425,,
	07/27/2022 15:39:27.228,695087,591.2950,64.00,6.00,-0.001060065,2.499972,-0.00265013,0.0001792642,0.0001740969,0.0006023673,0.0004761763,608.7812,591.2302,0,97.1175,,
	07/27/2022 15:58:45.173,696245,570.3905,65.00,6.00,-0.001060093,2.499982,-0.00265021,0.0001729783,0.0001679433,0.0005811213,0.0004592712,587.4336,570.3232,0,97.08923,,
	07/27/2022 16:17:23.447,697363,551.8555,66.00,6.00,-0.001060063,2.499803,-0.00264995,0.0001667533,0.0001624863,0.0005600508,0.0004441915,566.2997,551.7952,0,97.44112,,
	07/27/2022 16:35:24.575,698444,533.0778,67.00,6.00,-0.001060102,2.499993,-0.00265025,0.0001613429,0.0001569564,0.0005417658,0.0004290516,547.9261,533.0166,0,97.28126,,
	07/27/2022 16:52:46.756,699486,513.8308,68.00,6.00,-0.001060071,2.499976,-0.00265015,0.00015554,0.0001512907,0.0005221358,0.0004134931,528.2213,513.7748,0,97.26799,,
	07/27/2022 17:09:31.128,700491,495.1818,69.00,6.00,-0.00106014,2.499984,-0.00265033,0.0001499006,0.0001457994,0.000503037,0.0003984442,509.0762,495.12,0,97.26405,,
	07/27/2022 17:25:40.394,701460,478.4436,70.00,6.00,-0.001060078,2.499984,-0.00265018,0.0001444912,0.00014087,0.0004847482,0.000384899,490.7104,478.3821,0,97.4938,,
	07/27/2022 17:41:16.099,702396,461.6140,71.00,6.00,-0.001060085,2.499999,-0.00265021,0.0001395692,0.000135913,0.000468086,0.0003713361,473.983,461.5489,0,97.38036,,
	07/27/2022 17:56:16.932,703296,444.3484,72.00,6.00,-0.001060053,2.499984,-0.00265012,0.0001343824,0.0001308306,0.0004505256,0.0003574257,456.3721,444.2914,0,97.35693,,
	07/27/2022 18:10:42.301,704162,427.0676,73.00,6.00,-0.001060097,2.499707,-0.00264993,0.0001290254,0.0001257438,0.0004323739,0.0003434848,438.179,427.018,0,97.45663,,
	07/27/2022 18:24:33.795,704993,410.0623,74.00,6.00,-0.001060043,2.499997,-0.0026501,0.0001240647,0.0001207336,0.0004155705,0.0003298368,421.3317,410.0177,0,97.31506,,
	07/27/2022 18:37:51.751,705791,393.6959,75.00,6.00,-0.001060122,2.499909,-0.00265021,0.0001190109,0.0001159173,0.0003984516,0.0003166664,404.1597,393.6563,0,97.40053,,
	07/27/2022 18:50:36.728,706556,377.3722,76.00,6.00,-0.001060069,2.499982,-0.00265015,0.0001141099,0.0001111119,0.0003818401,0.0003035716,387.512,377.3334,0,97.37266,,
	07/27/2022 19:02:48.920,707288,361.1288,77.00,6.00,-0.001060073,2.499852,-0.00265003,0.0001092363,0.0001063263,0.0003653128,0.0002905219,370.9627,361.089,0,97.33604,,
	07/27/2022 19:14:28.980,707988,345.3387,78.00,6.00,-0.001060065,2.499944,-0.0026501,0.0001044279,0.000101679,0.0003490242,0.0002778367,354.6346,345.3057,0,97.36761,,
	07/27/2022 19:25:37.678,708657,329.8159,79.00,6.00,-0.00106001,2.499965,-0.00264999,9.976521E-05,9.710734E-05,0.0003332277,0.0002653933,338.7925,329.7783,0,97.33588,,
	07/27/2022 19:36:14.766,709294,314.0765,80.00,6.00,-0.001060029,2.499965,-0.00265004,9.509133E-05,9.2473E-05,0.0003173762,0.000252808,322.923,314.042,0,97.24651,,
	07/27/2022 19:46:21.659,709901,299.3934,81.00,6.00,-0.00106009,2.499988,-0.00265021,9.052469E-05,8.815193E-05,0.0003019101,0.0002410145,307.4108,299.3687,0,97.37888,,
	07/27/2022 19:55:59.906,710479,285.2622,82.00,6.00,-0.001060043,2.499951,-0.00265006,8.625383E-05,8.399082E-05,0.0002874336,0.0002296865,292.9067,285.2398,0,97.37633,,
	07/27/2022 20:05:10.154,711030,271.5151,83.00,6.00,-0.001060054,2.499995,-0.00265013,8.205414E-05,7.994464E-05,0.0002732027,0.0002186578,278.6448,271.4966,0,97.42913,,
	07/27/2022 20:13:54.567,711554,258.8357,84.00,6.00,-0.001060023,2.499951,-0.00265001,7.818203E-05,7.620721E-05,0.0002600911,0.0002085028,265.4916,258.8098,0,97.47407,,
	07/27/2022 20:22:14.390,712054,246.8010,85.00,6.00,-0.001060037,2.499995,-0.00265009,7.4476E-05,7.26653E-05,0.0002475432,0.0001988445,252.9402,246.7819,0,97.56875,,
	07/27/2022 20:30:11.326,712531,235.7142,86.00,6.00,-0.001059971,2.49994,-0.00264986,7.100441E-05,6.939888E-05,0.0002357881,0.0001899382,241.1439,235.6936,0,97.73882,,
	07/27/2022 20:37:47.648,712987,225.4826,87.00,6.00,-0.001060018,2.499999,-0.00265004,6.794603E-05,6.638516E-05,0.0002254465,0.0001817335,230.7611,225.4557,0,97.70278,,
	07/27/2022 20:45:04.678,713424,216.2437,88.00,6.00,-0.001060018,2.499974,-0.00265002,6.499115E-05,6.366781E-05,0.0002154481,0.0001743075,220.7057,216.2249,0,97.96381,,
	07/27/2022 20:52:07.028,713846,209.6823,89.00,6.00,-0.001060015,2.499932,-0.00264997,6.260338E-05,6.173739E-05,0.0002073757,0.0001690331,212.5898,209.6679,0,98.6167,,
	07/27/2022 20:58:58.262,714258,204.0995,90.00,6.00,-0.00106004,2.49989,-0.00264998,6.097484E-05,6.009373E-05,0.0002018383,0.0001645559,207.0581,204.0827,0,98.55495,,
	07/27/2022 21:05:36.632,714656,197.2889,91.00,6.00,-0.001060004,2.49999,-0.00265,5.919001E-05,5.808774E-05,0.0001957879,0.0001590936,201.0004,197.2721,0,98.13776,,
	07/27/2022 21:12:01.743,715041,190.6207,92.00,6.00,-0.00106001,2.499982,-0.00265001,5.724994E-05,5.612247E-05,0.0001892494,0.000153743,194.4093,190.6015,0,98.03061,,
	07/27/2022 21:18:13.742,715413,184.1393,93.00,6.00,-0.001060083,2.499972,-0.00265018,5.529898E-05,5.421611E-05,0.0001826788,0.0001485389,187.787,184.1179,0,98.0418,,
	07/27/2022 21:24:14.266,715774,178.7082,94.00,6.00,-0.001060063,2.499955,-0.00265011,5.351969E-05,5.261545E-05,0.0001766932,0.0001441514,181.7461,178.6877,0,98.31046,,
	07/27/2022 21:30:05.280,716125,174.0400,95.00,6.00,-0.001059995,2.499967,-0.00264995,5.209097E-05,5.124113E-05,0.000171878,0.0001404031,176.8982,174.0256,0,98.36854,,
	07/27/2022 21:35:47.135,716467,169.4599,96.00,6.00,-0.001060048,2.499972,-0.00265009,5.074538E-05,4.989448E-05,0.0001673419,0.0001367254,172.3249,169.4462,0,98.3232,,
	07/27/2022 21:41:20.248,716800,165.1933,97.00,6.00,-0.001060012,2.499953,-0.00264998,4.94273E-05,4.863695E-05,0.0001629085,0.0001332799,167.8454,165.1792,0,98.40098,,
	07/27/2022 21:46:46.158,717126,161.8104,98.00,6.00,-0.001060026,2.499934,-0.00265,4.830411E-05,4.764289E-05,0.0001591263,0.0001305548,164.0328,161.8005,0,98.63113,,
	07/27/2022 21:52:05.980,717445,158.7825,99.00,6.00,-0.001060021,2.499883,-0.00264993,4.740512E-05,4.674916E-05,0.0001560912,0.0001281099,160.9774,158.7701,0,98.61627,,
	07/27/2022 21:57:19.117,717759,155.2478,100.00,6.00,-0.001060049,2.499978,-0.0026501,4.647034E-05,4.570681E-05,0.0001529379,0.0001252673,157.8193,155.2299,0,98.35696,,
	07/27/2022 22:02:25.235,718065,151.6971,101.00,6.00,-0.001060057,2.499991,-0.00265013,4.545229E-05,4.466504E-05,0.0001495263,0.0001224194,154.3471,151.6882,0,98.26797,,
	07/27/2022 22:07:24.526,718364,148.4492,102.00,6.00,-0.001060069,2.499988,-0.00265016,4.439342E-05,4.370608E-05,0.0001459816,0.0001197841,150.7693,148.4319,0,98.4517,,
	07/27/2022 22:12:19.136,718659,146.4274,103.00,6.00,-0.001060056,2.499999,-0.00265014,4.361647E-05,4.311365E-05,0.0001433708,0.000118149,148.1108,146.4186,0,98.84718,,
	07/27/2022 22:17:09.871,718949,144.3644,104.00,6.00,-0.001060004,2.49998,-0.00264999,4.307881E-05,4.250479E-05,0.0001415494,0.0001164901,146.2961,144.3556,0,98.66751,,
	07/27/2022 22:21:56.070,719235,142.0068,105.00,6.00,-0.001060018,2.499843,-0.00264988,4.244232E-05,4.181162E-05,0.0001394111,0.0001145922,144.1255,142.0009,0,98.51398,,
	07/27/2022 22:26:36.799,719516,139.0366,106.00,6.00,-0.001060049,2.499995,-0.00265012,4.17078E-05,4.09364E-05,0.0001369521,0.0001122085,141.6292,139.0267,0,98.15045,,
	07/27/2022 22:31:12.138,719792,136.5540,107.00,6.00,-0.001060023,2.49993,-0.00264998,4.085083E-05,4.020322E-05,0.0001340991,0.000110184,138.7179,136.5379,0,98.41472,,
	07/27/2022 22:35:43.414,720063,134.6437,108.00,6.00,-0.001060002,2.499991,-0.00265,4.021446E-05,3.964486E-05,0.0001319773,0.0001086493,136.5612,134.6389,0,98.5836,,
	07/27/2022 22:40:10.847,720330,132.7617,109.00,6.00,-0.001059979,2.499948,-0.00264989,3.963206E-05,3.908712E-05,0.0001300119,0.0001071167,134.6078,132.7514,0,98.62501,,
	07/27/2022 22:44:34.288,720594,130.5510,110.00,6.00,-0.001060028,2.49994,-0.00265001,3.910425E-05,3.843551E-05,0.0001282441,0.0001053393,132.8219,130.5385,0,98.28986,,
	07/27/2022 22:48:53.519,720853,128.5582,111.00,6.00,-0.001059993,2.499995,-0.00264998,3.845765E-05,3.78502E-05,0.0001260919,0.0001037289,130.607,128.5508,0,98.42046,,
	07/27/2022 22:53:09.328,721109,126.9219,112.00,6.00,-0.001059971,2.499984,-0.00264991,3.792763E-05,3.737022E-05,0.0001243249,0.000102409,128.8264,126.917,0,98.53033,,
	07/27/2022 22:57:21.791,721361,125.2591,113.00,6.00,-0.001059963,2.499976,-0.00264988,3.743107E-05,3.687973E-05,0.0001226588,0.000101061,127.1391,125.2563,0,98.52704,,
	07/27/2022 23:01:31.175,721611,123.6449,114.00,6.00,-0.001059977,2.49999,-0.00264993,3.699863E-05,3.640513E-05,0.0001212225,9.976589E-05,125.6689,123.6424,0,98.39589,,
	07/27/2022 23:05:36.977,721856,121.9533,115.00,6.00,-0.001059989,2.499986,-0.00264996,3.644381E-05,3.590688E-05,0.0001193688,9.838467E-05,123.7858,121.9485,0,98.52671,,
	07/27/2022 23:09:40.508,722100,120.9782,116.00,6.00,-0.001059956,2.499984,-0.00264987,3.606342E-05,3.561981E-05,0.0001181017,9.759186E-05,122.4869,120.9732,0,98.76991,,
	07/27/2022 23:13:42.535,722342,120.2053,117.00,6.00,-0.001059962,2.499967,-0.00264987,3.584585E-05,3.539149E-05,0.000117368,9.696872E-05,121.7546,120.1968,0,98.73248,,
	07/27/2022 23:17:42.318,722582,118.9949,118.00,6.00,-0.001059982,2.499972,-0.00264993,3.554433E-05,3.50355E-05,0.0001163477,9.599168E-05,120.7301,118.9911,0,98.56846,,
	07/27/2022 23:21:39.572,722819,117.6090,119.00,6.00,-0.001059989,2.499999,-0.00264997,3.520475E-05,3.462828E-05,0.0001152218,9.488194E-05,119.5782,117.6064,0,98.36252,,
	07/27/2022 23:25:33.405,723053,115.8131,120.00,6.00,-0.001060028,2.499999,-0.00265007,3.472822E-05,3.409822E-05,0.0001136384,9.343005E-05,117.9579,115.8052,0,98.18591,,
	07/27/2022 23:29:23.751,723283,114.2670,121.00,6.00,-0.001059975,2.499984,-0.00264992,3.416575E-05,3.364385E-05,0.0001117712,9.21621E-05,116.0201,114.2643,0,98.47247,,
	07/27/2022 23:33:12.484,723512,113.6042,122.00,6.00,-0.001059982,2.499911,-0.00264986,3.38821E-05,3.344854E-05,0.0001108364,9.162632E-05,115.0727,113.5983,0,98.72039,,
	07/27/2022 23:37:00.038,723739,113.0162,123.00,6.00,-0.001060043,2.499988,-0.00265009,3.370167E-05,3.327518E-05,0.000110221,9.115279E-05,114.4739,113.0131,0,98.73451,,
	07/27/2022 23:40:46.118,723966,112.2132,124.00,6.00,-0.001059986,2.499972,-0.00264994,3.350967E-05,3.303886E-05,0.0001095735,9.050227E-05,113.8026,112.2082,0,98.59502,,
	07/27/2022 23:44:30.077,724189,111.0300,125.00,6.00,-0.001060012,2.499972,-0.00265,3.322796E-05,3.269055E-05,0.0001086326,8.954637E-05,112.8633,111.0249,0,98.38268,,
	07/27/2022 23:48:11.423,724411,109.6855,126.00,6.00,-0.001059921,2.49999,-0.00264979,3.285686E-05,3.229606E-05,0.0001074041,8.846282E-05,111.5978,109.6872,0,98.2932,,
	07/27/2022 23:51:50.163,724630,108.3580,127.00,6.00,-0.001060018,2.499982,-0.00265003,3.247893E-05,3.190436E-05,0.0001061607,8.738971E-05,110.3186,108.3548,0,98.23096,,
	07/27/2022 23:55:26.659,724846,107.4107,128.00,6.00,-0.001059996,2.499961,-0.00264995,3.209755E-05,3.162475E-05,0.0001048974,8.66129E-05,109.0236,107.4066,0,98.52699,,
	07/27/2022 23:59:01.560,725061,106.6437,129.00,6.00,-0.001059998,2.499978,-0.00264997,3.185456E-05,3.14005E-05,0.0001040842,8.59959E-05,108.1922,106.6413,0,98.57458,,
	07/28/2022 00:02:34.998,725274,105.8815,130.00,6.00,-0.001059961,2.499991,-0.00264989,3.165232E-05,3.117357E-05,0.0001034126,8.537444E-05,107.4958,105.8733,0,98.48749,,
	07/28/2022 00:06:06.740,725486,105.0411,131.00,6.00,-0.00105999,2.499986,-0.00264996,3.139913E-05,3.092817E-05,0.0001025717,8.46926E-05,106.641,105.0382,0,98.50007,,
	07/28/2022 00:09:36.562,725696,104.0924,132.00,6.00,-0.001060034,2.499896,-0.00264997,3.110823E-05,3.064915E-05,0.0001015995,8.391884E-05,105.6613,104.0889,0,98.52425,,
	07/28/2022 00:13:05.048,725904,103.4307,133.00,6.00,-0.001059993,2.499995,-0.00264998,3.091506E-05,3.045454E-05,0.0001009633,8.338659E-05,104.9947,103.4311,0,98.51038,,
	07/28/2022 00:16:32.099,726112,102.6990,134.00,6.00,-0.001060028,2.499997,-0.00265007,3.070991E-05,3.023688E-05,0.0001002815,8.278876E-05,104.2919,102.6907,0,98.45971,,
	07/28/2022 00:19:57.393,726317,101.7868,135.00,6.00,-0.001059977,2.499984,-0.00264993,3.046244E-05,2.996985E-05,9.945857E-05,8.205356E-05,103.446,101.7829,0,98.38294,,
	07/28/2022 00:23:20.871,726520,100.8334,136.00,6.00,-0.00105999,2.499944,-0.00264992,3.020746E-05,2.968947E-05,9.861675E-05,8.128759E-05,102.5864,100.8307,0,98.28522,,
	07/28/2022 00:26:42.710,726722,100.1421,137.00,6.00,-0.001060012,2.499993,-0.00265002,2.992388E-05,2.948458E-05,9.767943E-05,8.071582E-05,101.6323,100.137,0,98.53196,,
	07/28/2022 00:30:03.391,726923,99.5707,138.00,6.00,-0.001060015,2.499972,-0.00265001,2.97529E-05,2.931787E-05,9.711282E-05,8.02551E-05,101.0501,99.5682,0,98.53786,,
	07/28/2022 00:33:22.870,727122,98.9598,139.00,6.00,-0.001060016,2.499991,-0.00265003,2.958262E-05,2.91372E-05,9.654529E-05,7.975992E-05,100.4554,98.9541,0,98.49434,,
	07/28/2022 00:36:41.044,727320,98.2813,140.00,6.00,-0.001060054,2.499995,-0.00265013,2.939713E-05,2.893932E-05,9.592711E-05,7.921335E-05,99.8338,98.2812,0,98.44265,,
	07/28/2022 00:39:57.641,727517,97.4651,141.00,6.00,-0.001060012,2.499951,-0.00264998,2.917344E-05,2.869818E-05,9.518545E-05,7.85507E-05,99.0678,97.4626,0,98.37093,,
	07/28/2022 00:43:13.054,727712,96.9332,142.00,6.00,-0.001059977,2.499837,-0.00264977,2.898011E-05,2.854037E-05,9.455102E-05,7.811299E-05,98.4182,96.9307,0,98.48261,,
	07/28/2022 00:46:27.403,727907,96.4243,143.00,6.00,-0.001060048,2.499991,-0.00265011,2.881238E-05,2.839187E-05,9.399077E-05,7.770157E-05,97.862,96.4207,0,98.54052,,
	07/28/2022 00:49:40.864,728100,95.9820,144.00,6.00,-0.001060002,2.499988,-0.00264999,2.868874E-05,2.825929E-05,9.358074E-05,7.733709E-05,97.4219,95.9723,0,98.50308,,
	07/28/2022 00:52:52.866,728292,95.1820,145.00,6.00,-0.001060042,2.49998,-0.00265008,2.849152E-05,2.802614E-05,9.291946E-05,7.669505E-05,96.7594,95.1809,0,98.3666,,
	07/28/2022 00:56:03.687,728483,94.5838,146.00,6.00,-0.001060025,2.499995,-0.00265006,2.832196E-05,2.784963E-05,9.236963E-05,7.621195E-05,96.1754,94.5828,0,98.33228,,
	07/28/2022 00:59:12.938,728672,93.7915,147.00,6.00,-0.001060029,2.499991,-0.00265006,2.809202E-05,2.761524E-05,9.160701E-05,7.5566E-05,95.401,93.7873,0,98.30278,,
	07/28/2022 01:02:20.809,728860,93.2101,148.00,6.00,-0.001060028,2.49993,-0.00265,2.785537E-05,2.744421E-05,9.082266E-05,7.508626E-05,94.6022,93.2053,0,98.52397,,
	07/28/2022 01:05:27.947,729047,92.8454,149.00,6.00,-0.001060037,2.499986,-0.00265008,2.774944E-05,2.733821E-05,9.047196E-05,7.480005E-05,94.2309,92.8438,0,98.51807,,
	07/28/2022 01:08:34.293,729234,92.4989,150.00,6.00,-0.001060051,2.499997,-0.00265012,2.761766E-05,2.723609E-05,9.002919E-05,7.451172E-05,93.7832,92.4966,0,98.6184,,
	07/28/2022 01:11:40.062,729419,92.0955,151.00,6.00,-0.001060021,2.499923,-0.00264997,2.756645E-05,2.711675E-05,8.986495E-05,7.419282E-05,93.6083,92.0918,0,98.36868,,
	07/28/2022 01:14:44.610,729604,91.5052,152.00,6.00,-0.001060053,2.499927,-0.00265006,2.738153E-05,2.694202E-05,8.925295E-05,7.37076E-05,92.9808,91.4985,0,98.39486,,
	07/28/2022 01:17:48.071,729787,90.9572,153.00,6.00,-0.001060023,2.499997,-0.00265005,2.721933E-05,2.67806E-05,8.871774E-05,7.326209E-05,92.4375,90.9526,0,98.38816,,
	07/28/2022 01:20:50.631,729970,90.5027,154.00,6.00,-0.001060042,2.499932,-0.00265003,2.708754E-05,2.664687E-05,8.82878E-05,7.289862E-05,91.9968,90.496,0,98.37313,,
	07/28/2022 01:23:52.363,730152,90.2086,155.00,6.00,-0.001059993,2.499978,-0.00264996,2.693265E-05,2.65604E-05,8.777219E-05,7.264774E-05,91.4634,90.2042,0,98.61784,,
	07/28/2022 01:26:53.494,730333,89.7660,156.00,6.00,-0.001060019,2.499978,-0.00265002,2.688752E-05,2.64335E-05,8.762268E-05,7.2312E-05,91.3026,89.772,0,98.31142,,
	07/28/2022 01:29:53.490,730513,89.3059,157.00,6.00,-0.001060025,2.499875,-0.00264993,2.668862E-05,2.6294E-05,8.696045E-05,7.191573E-05,90.6281,89.2987,0,98.5214,,
	07/28/2022 01:32:52.622,730692,88.7404,158.00,6.00,-0.001060005,2.499972,-0.00264998,2.659799E-05,2.612827E-05,8.666403E-05,7.146958E-05,90.3304,88.7365,0,98.23398,,
	07/28/2022 01:35:50.742,730870,88.3096,159.00,6.00,-0.001059995,2.499997,-0.00264998,2.642648E-05,2.600198E-05,8.610582E-05,7.111902E-05,89.7405,88.3093,0,98.39367,,
	07/28/2022 01:38:47.954,731047,87.9186,160.00,6.00,-0.00105997,2.499978,-0.0026499,2.627049E-05,2.58859E-05,8.558441E-05,7.079051E-05,89.2317,87.9155,0,98.53606,,
	07/28/2022 01:41:44.454,731224,87.5029,161.00,6.00,-0.001059975,2.499991,-0.00264993,2.618403E-05,2.576253E-05,8.529804E-05,7.045405E-05,88.9368,87.4984,0,98.39025,,
	07/28/2022 01:44:39.953,731399,86.9807,162.00,6.00,-0.001059989,2.499936,-0.0026499,2.604294E-05,2.561085E-05,8.482992E-05,7.003938E-05,88.4576,86.9794,0,98.34086,,
	07/28/2022 01:47:34.831,731574,86.7077,163.00,6.00,-0.001060005,2.499997,-0.00265001,2.593929E-05,2.552989E-05,8.449707E-05,6.981647E-05,88.1089,86.7046,0,98.42168,,
	07/28/2022 01:50:28.581,731748,86.1421,164.00,6.00,-0.001060002,2.499963,-0.00264997,2.578069E-05,2.536294E-05,8.396745E-05,6.93547E-05,87.5498,86.1377,0,98.37961,,
	07/28/2022 01:53:21.867,731921,85.9078,165.00,6.00,-0.001059975,2.499988,-0.00264992,2.570722E-05,2.52946E-05,8.373291E-05,6.916995E-05,87.3148,85.9061,0,98.39494,,
	07/28/2022 01:56:14.355,732094,85.5234,166.00,6.00,-0.00106,2.499953,-0.00264995,2.558542E-05,2.518114E-05,8.332707E-05,6.885347E-05,86.9056,85.5208,0,98.41989,,
	07/28/2022 01:59:05.978,732265,85.0868,167.00,6.00,-0.00105999,2.499982,-0.00264996,2.545899E-05,2.505216E-05,8.290527E-05,6.849512E-05,86.4723,85.0845,0,98.40199,,
	07/28/2022 02:01:56.777,732436,84.6756,168.00,6.00,-0.001060032,2.49999,-0.00265007,2.533796E-05,2.493218E-05,8.250901E-05,6.816032E-05,86.0601,84.6738,0,98.39855,,
	07/28/2022 02:04:46.854,732606,84.3165,169.00,6.00,-0.001060004,2.499963,-0.00264997,2.523173E-05,2.482545E-05,8.216198E-05,6.786994E-05,85.6962,84.3131,0,98.38982,,
	07/28/2022 02:07:36.186,732776,83.9522,170.00,6.00,-0.001060004,2.499988,-0.00265,2.51219E-05,2.47194E-05,8.179899E-05,6.758134E-05,85.3219,83.9516,0,98.39784,,
	07/28/2022 02:10:24.822,732944,83.6364,171.00,6.00,-0.001059996,2.499907,-0.00264989,2.50139E-05,2.462488E-05,8.14419E-05,6.731808E-05,84.9409,83.6294,0,98.44476,,
	07/28/2022 02:13:12.827,733112,83.2773,172.00,6.00,-0.001060042,2.499995,-0.0026501,2.493369E-05,2.452203E-05,8.117844E-05,6.703957E-05,84.6702,83.2792,0,98.34896,,
	07/28/2022 02:16:00.126,733280,82.9572,173.00,6.00,-0.001059987,2.499982,-0.00264995,2.48158E-05,2.44257E-05,8.07889E-05,6.676977E-05,84.2846,82.9548,0,98.428,,
	07/28/2022 02:18:46.893,733446,82.6981,174.00,6.00,-0.001059998,2.49989,-0.00264988,2.473286E-05,2.434969E-05,8.051733E-05,6.655791E-05,84.0044,82.6959,0,98.45074,,
	07/28/2022 02:21:33.136,733613,82.4357,175.00,6.00,-0.001060018,2.499955,-0.00265,2.466145E-05,2.427275E-05,8.028297E-05,6.634659E-05,83.7501,82.4351,0,98.42389,,
	07/28/2022 02:24:18.486,733778,81.9522,176.00,6.00,-0.001060014,2.49998,-0.00265001,2.454064E-05,2.413144E-05,7.987769E-05,6.595859E-05,83.3349,81.9525,0,98.33256,,
	07/28/2022 02:27:03.254,733943,81.7017,177.00,6.00,-0.001060012,2.499972,-0.00265,2.444189E-05,2.405586E-05,7.955838E-05,6.574828E-05,83.0044,81.6986,0,98.42061,,
	07/28/2022 02:29:47.285,734107,81.2755,178.00,6.00,-0.00105999,2.499768,-0.00264973,2.435118E-05,2.393127E-05,7.925706E-05,6.541282E-05,82.6957,81.2755,0,98.2756,,
	07/28/2022 02:32:30.918,734270,81.1756,179.00,6.00,-0.001060005,2.49994,-0.00264995,2.426121E-05,2.390194E-05,7.896814E-05,6.53265E-05,82.3979,81.1772,0,98.51913,,
	07/28/2022 02:35:13.989,734433,80.8235,180.00,6.00,-0.001059975,2.499988,-0.00264992,2.419755E-05,2.379814E-05,7.87511E-05,6.504439E-05,82.1871,80.8248,0,98.34938,,
	07/28/2022 02:37:56.523,734596,80.5714,181.00,6.00,-0.001060026,2.499984,-0.00265005,2.411248E-05,2.372355E-05,7.847716E-05,6.483704E-05,81.9017,80.5695,0,98.38699,,
	07/28/2022 02:40:38.419,734758,80.2491,182.00,6.00,-0.001059961,2.499972,-0.00264987,2.40227E-05,2.362825E-05,7.817976E-05,6.457327E-05,81.5841,80.2469,0,98.35799,,
	07/28/2022 02:43:19.738,734919,79.9603,183.00,6.00,-0.001059971,2.499969,-0.00264989,2.393505E-05,2.354331E-05,7.789105E-05,6.433899E-05,81.2984,79.9602,0,98.36333,,
	07/28/2022 02:46:00.593,735080,79.7306,184.00,6.00,-0.001059973,2.499993,-0.00264993,2.386558E-05,2.34759E-05,7.766828E-05,6.415191E-05,81.0629,79.7305,0,98.36719,,
	07/28/2022 02:48:40.635,735240,79.3051,185.00,6.00,-0.001059993,2.499988,-0.00264997,2.375309E-05,2.335055E-05,7.729346E-05,6.380622E-05,80.6801,79.3066,0,98.30529,,
	07/28/2022 02:51:20.022,735399,79.0251,186.00,6.00,-0.001060018,2.499974,-0.00265002,2.364142E-05,2.326787E-05,7.692607E-05,6.357571E-05,80.3011,79.022,0,98.41994,,
	07/28/2022 02:53:59.011,735558,78.8172,187.00,6.00,-0.001060037,2.499991,-0.00265008,2.35854E-05,2.320732E-05,7.674518E-05,6.340954E-05,80.1127,78.8161,0,98.39698,,
	07/28/2022 02:56:37.408,735717,78.5274,188.00,6.00,-0.001059982,2.499999,-0.00264995,2.349991E-05,2.312118E-05,7.646255E-05,6.317056E-05,79.8092,78.525,0,98.38838,,
	07/28/2022 02:59:15.139,735875,78.1237,189.00,6.00,-0.001059986,2.49997,-0.00264993,2.342026E-05,2.3003E-05,7.620166E-05,6.285009E-05,79.546,78.1235,0,98.2184,,
	07/28/2022 03:01:52.196,736032,77.8618,190.00,6.00,-0.001060032,2.499866,-0.00264994,2.329848E-05,2.292665E-05,7.580511E-05,6.263573E-05,79.1341,77.8609,0,98.40405,,
	07/28/2022 03:04:28.889,736188,77.6699,191.00,6.00,-0.001059982,2.499925,-0.00264988,2.324923E-05,2.286815E-05,7.564647E-05,6.247727E-05,78.9625,77.6656,0,98.3609,,
	07/28/2022 03:07:04.894,736344,77.3066,192.00,6.00,-0.001060007,2.499988,-0.00265,2.315513E-05,2.276115E-05,7.533062E-05,6.218515E-05,78.6426,77.3028,0,98.29855,,
	07/28/2022 03:09:40.518,736500,77.1492,193.00,6.00,-0.001059979,2.499928,-0.00264987,2.308732E-05,2.271427E-05,7.511507E-05,6.205386E-05,78.4184,77.1456,0,98.38418,,
	07/28/2022 03:12:15.548,736655,76.8372,194.00,6.00,-0.001060016,2.499808,-0.00264984,2.300283E-05,2.262469E-05,7.483317E-05,6.180432E-05,78.1331,76.836,0,98.35612,,
	07/28/2022 03:14:50.035,736809,76.5492,195.00,6.00,-0.001059989,2.499948,-0.00264992,2.292744E-05,2.253791E-05,7.458615E-05,6.156902E-05,77.8751,76.5449,0,98.30106,,
	07/28/2022 03:17:23.952,736963,76.3492,196.00,6.00,-0.001060023,2.499951,-0.00265001,2.282276E-05,2.248046E-05,7.42406E-05,6.140202E-05,77.5064,76.3473,0,98.50018,,
	07/28/2022 03:19:57.538,737117,76.1237,197.00,6.00,-0.001060002,2.49994,-0.00264994,2.279351E-05,2.241257E-05,7.414588E-05,6.121981E-05,77.4016,76.1179,0,98.32871,,
	07/28/2022 03:22:30.758,737270,75.9683,198.00,6.00,-0.001060028,2.499827,-0.00264989,2.27301E-05,2.236757E-05,7.394152E-05,6.109484E-05,77.1945,75.9643,0,98.40504,,
	07/28/2022 03:25:03.504,737423,75.7092,199.00,6.00,-0.001060034,2.499997,-0.00265008,2.266528E-05,2.229313E-05,7.372526E-05,6.089016E-05,76.9697,75.7104,0,98.35807,,
	07/28/2022 03:27:35.707,737575,75.4070,200.00,6.00,-0.001060084,2.499887,-0.00265009,2.259749E-05,2.220306E-05,7.350342E-05,6.06491E-05,76.7364,75.4027,0,98.2545,,