File: Cell-test-data/SiMP-LFP-PS10/JB6_SiMPs-LFP-POF10-A8_Channel_39_StatisticByCycle.CSV
Date_Time                    ,Test Time (s),Step Time (s),Cycle Index,Step Index,Current (A),Voltage (V),Power (W),Charge Capacity (Ah),Discharge Capacity (Ah),Charge Energy (Wh),Discharge Energy (Wh),Charge Time (s),Discharge Time (s),V_Max_On_Cycle (V),Coulombic Efficiency (%),mAh/g
	05/16/2022 16:39:38.027,177954,60714.8,1,3,-0.0001589872,2.499997,-0.000397468,0.003269507,0.002681054,0.01082127,0.007958874,74029.99,60707.39,0,82.00176,,
	05/18/2022 01:55:58.482,297735,58576.3,2,3,-0.0001589911,2.499988,-0.000397476,0.002702828,0.002586618,0.008736448,0.007656093,61196.34,58568.88,0,95.70041,,
	05/19/2022 10:12:39.897,413936,57109.8,3,3,-0.0001589855,2.499997,-0.000397463,0.002609418,0.002521863,0.008405152,0.007445197,59083.84,57102.47,0,96.64465,,
	05/19/2022 14:29:34.692,429351,7456.97,4,6,-0.001059858,2.499997,-0.00264964,0.00234282,0.002195484,0.00766184,0.006357283,7956.643,7455.988,0,93.71115,,
	05/19/2022 18:34:40.330,444057,7289.28,5,6,-0.00105983,2.499986,-0.00264956,0.002183396,0.002146077,0.00712439,0.006207123,7415.319,7288.338,0,98.29079,,
	05/19/2022 22:36:02.193,458539,7179.1,6,6,-0.001060159,2.499988,-0.00265038,0.002150025,0.002113754,0.007012443,0.006108514,7301.777,7178.199,0,98.31303,,
	05/20/2022 02:34:54.697,472871,7111.76,7,6,-0.001060145,2.499988,-0.00265035,0.002125907,0.002093994,0.006932617,0.006052299,7219.77,7110.791,0,98.49883,,
	05/20/2022 06:31:21.350,487058,7039.02,8,6,-0.001060157,2.499991,-0.00265038,0.002104506,0.002072605,0.00686085,0.005989228,7146.701,7038.171,0,98.48415,,
	05/20/2022 10:25:14.351,501091,6962.13,9,6,-0.001060124,2.499995,-0.0026503,0.002081888,0.002049861,0.006786154,0.005922714,7069.856,6961.243,0,98.46164,,
	05/20/2022 14:16:33.138,514969,6885.91,10,6,-0.001060124,2.499993,-0.0026503,0.00205873,0.002027229,0.006710457,0.005856683,6991.907,6885.06,0,98.46986,,
	05/20/2022 18:06:05.610,528742,6837.4,11,6,-0.001060147,2.499991,-0.00265036,0.002041711,0.002012954,0.006652807,0.005817769,6934.156,6836.528,0,98.59148,,
	05/20/2022 21:53:27.773,542384,6769.2,12,6,-0.001060152,2.499984,-0.00265036,0.002023403,0.001992914,0.006592161,0.005759716,6872.093,6768.371,0,98.49315,,
	05/21/2022 01:38:05.391,555862,6684.41,13,6,-0.001060162,2.499986,-0.00265039,0.001999911,0.001968117,0.006515989,0.005685845,6792.273,6683.567,0,98.41023,,
	05/21/2022 05:19:52.837,569169,6605.4,14,6,-0.001060122,2.499978,-0.00265028,0.001973167,0.00194476,0.006430947,0.005617145,6701.155,6604.564,0,98.56033,,
	05/21/2022 08:59:26.104,582342,6539.79,15,6,-0.001060143,2.499999,-0.00265036,0.001952954,0.001925585,0.0063651,0.005561818,6632.596,6538.941,0,98.59856,,
	05/21/2022 12:36:53.440,595390,6477.4,16,6,-0.001059826,2.499995,-0.00264956,0.001934256,0.001907107,0.006304221,0.005508313,6569.071,6476.587,0,98.59641,,
	05/21/2022 16:12:44.180,608341,6432.24,17,6,-0.00105983,2.499991,-0.00264957,0.001919046,0.001893607,0.006253811,0.005471624,6517.622,6431.353,0,98.67439,,
	05/21/2022 19:46:30.236,621167,6364.27,18,6,-0.001059851,2.49999,-0.00264962,0.001902312,0.001873871,0.006198435,0.005414113,6460.876,6363.458,0,98.50491,,
	05/21/2022 23:17:50.891,633847,6297.41,19,6,-0.001059826,2.499993,-0.00264956,0.001879261,0.001854139,0.006125242,0.005355955,6382.379,6296.628,0,98.66321,,
	05/22/2022 02:47:15.138,646411,6239.86,20,6,-0.001060122,2.499986,-0.00265029,0.001861994,0.001837148,0.0060691,0.005307428,6323.514,6239.076,0,98.6656,,
	05/22/2022 06:14:45.327,658862,6183.26,21,6,-0.001060133,2.499995,-0.00265033,0.001845077,0.001820421,0.006014084,0.005259363,6266.068,6182.448,0,98.6637,,
	05/22/2022 09:40:22.101,671198,6127.48,22,6,-0.001059886,2.49999,-0.0026497,0.00182811,0.001803866,0.005959184,0.005211446,6208.37,6126.729,0,98.67381,,
	05/22/2022 13:04:07.081,683423,6071.48,23,6,-0.001059842,2.499997,-0.0026496,0.001811683,0.001787303,0.00590596,0.00516387,6152.65,6070.731,0,98.6543,,
	05/22/2022 16:26:26.489,695562.815,6034.3,24,6,-0.001059833,2.499993,-0.00264958,0.001797317,0.001776371,0.005859184,0.005134095,6104.237,6033.513,0,98.83458,,
	05/22/2022 19:47:13.234,707610,5981.21,25,6,-0.001060148,2.499997,-0.00265037,0.001785685,0.001760912,0.005820137,0.005089602,6064.674,5980.47,0,98.61269,,
	05/22/2022 23:05:55.134,719531,5921.75,26,6,-0.001060156,2.499993,-0.00265038,0.00176644,0.001743449,0.005758911,0.005038131,5999.306,5920.952,0,98.69844,,
	05/23/2022 02:22:45.710,731342,5866.63,27,6,-0.001060157,2.499988,-0.00265038,0.00174993,0.001727108,0.005705769,0.004991311,5943.153,5865.901,0,98.69585,,
	05/23/2022 05:37:57.232,743053.558,5819.32,28,6,-0.001060175,2.499999,-0.00265044,0.001734744,0.001713384,0.005656238,0.004951933,5891.4,5818.611,0,98.7687,,
	05/23/2022 08:51:38.927,754675,5774.09,29,6,-0.001060134,2.499974,-0.00265031,0.001721615,0.001700016,0.005613812,0.004913245,5846.816,5773.372,0,98.74545,,
	05/23/2022 12:03:40.697,766197.023,5725.755,30,6,-0.001059852,2.499988,-0.00264962,0.001706392,0.001685696,0.005564528,0.004872247,5795.188,5725.047,0,98.78715,,
	05/23/2022 15:14:11.174,777628,5678.72,31,6,-0.001060138,2.499995,-0.00265034,0.001693367,0.001671993,0.005522373,0.004832722,5750.956,5678,0,98.73775,,
	05/23/2022 18:23:09.962,788966,5633.52,32,6,-0.001060138,2.499972,-0.00265032,0.001679725,0.001658527,0.005478049,0.004794346,5704.52,5632.833,0,98.73804,,
	05/23/2022 21:30:36.983,800213,5589.24,33,6,-0.001060156,2.499999,-0.00265039,0.001665727,0.001645479,0.005432987,0.004756664,5657.009,5588.521,0,98.78442,,
	05/24/2022 00:36:32.450,811369,5542.98,34,6,-0.001060165,2.499997,-0.00265041,0.001652386,0.00163192,0.005389486,0.004717609,5611.749,5542.291,0,98.76141,,
	05/24/2022 03:40:59.433,822436,5500.17,35,6,-0.001060131,2.499997,-0.00265032,0.00163892,0.001619382,0.005345812,0.004681588,5566.011,5499.444,0,98.80785,,
	05/24/2022 06:44:00.078,833416,5455.345,36,6,-0.001059827,2.499991,-0.00264956,0.001626712,0.001606268,0.005306196,0.004643844,5524.543,5454.668,0,98.74323,,
	05/24/2022 09:45:38.058,844314,5417.56,37,6,-0.001060138,2.499978,-0.00265032,0.001613485,0.001595159,0.005263262,0.00461191,5479.679,5416.86,0,98.86421,,
	05/24/2022 12:45:52.871,855129,5373.69,38,6,-0.001060164,2.499984,-0.00265039,0.001601971,0.00158217,0.00522584,0.004574706,5440.373,5372.986,0,98.76398,,
	05/24/2022 15:44:45.997,865862,5332.71,39,6,-0.001060117,2.499997,-0.00265029,0.001590004,0.001570156,0.005187307,0.004540541,5399.677,5332.018,0,98.75169,,
	05/24/2022 18:42:15.806,876512,5293.41,40,6,-0.001060151,2.499993,-0.00265037,0.001577075,0.001558607,0.005145215,0.004507098,5355.69,5292.776,0,98.82896,,
	05/24/2022 21:38:26.788,887083,5254.97,41,6,-0.001060117,2.499991,-0.00265028,0.001565189,0.001547303,0.005106762,0.004474378,5315.296,5254.338,0,98.85722,,
	05/25/2022 00:33:22.709,897579,5216.62,42,6,-0.001060189,2.499999,-0.00265047,0.001554312,0.001535932,0.005071357,0.004441768,5278.576,5215.954,0,98.81745,,
	05/25/2022 03:27:21.168,908017.494,5189.167,43,6,-0.001060122,2.499991,-0.0026503,0.001545377,0.001527761,0.005041969,0.004420478,5248.553,5188.493,0,98.86009,,
	05/25/2022 06:20:36.917,918413,5167.45,44,6,-0.001059883,2.49999,-0.0026497,0.001539192,0.001521389,0.0050202,0.004404026,5227.595,5166.765,0,98.84336,,
	05/25/2022 09:12:42.879,928739,5127.81,45,6,-0.001060136,2.499997,-0.00265034,0.001530265,0.001509741,0.00499047,0.004370586,5197.435,5127.186,0,98.65876,,
	05/25/2022 12:02:25.170,938921,5059.59,46,6,-0.001060138,2.499999,-0.00265034,0.001508174,0.001489692,0.004921043,0.004308823,5122.009,5058.95,0,98.77455,,
	05/25/2022 14:50:47.111,949023,5023.606,47,6,-0.001060095,2.499997,-0.00265023,0.001495125,0.001479139,0.004879335,0.004278433,5077.609,5022.995,0,98.9308,,
	05/25/2022 17:38:03.986,959060,4988.48,48,6,-0.001060151,2.499991,-0.00265037,0.001486345,0.001468794,0.004850832,0.004248869,5047.695,4987.856,0,98.81921,,
	05/25/2022 20:24:02.195,969019,4948.64,49,6,-0.001060154,2.499993,-0.00265038,0.00147488,0.001456988,0.00481336,0.004214828,5008.87,4948.008,0,98.78686,,
	05/25/2022 23:08:47.074,978903,4913.78,50,6,-0.001059853,2.49999,-0.00264962,0.001463579,0.001446738,0.004776975,0.004185352,4970.438,4913.162,0,98.84933,,
	05/26/2022 01:52:20.015,988716,4877.17,51,6,-0.001060106,2.49998,-0.00265024,0.001453174,0.001435891,0.004743104,0.004154265,4935.079,4876.569,0,98.81069,,
	05/26/2022 04:34:41.442,998458,4843.57,52,6,-0.001060109,2.499993,-0.00265027,0.001442059,0.001426148,0.004707092,0.004126198,4897.195,4842.934,0,98.89667,,
	05/26/2022 07:15:54.658,1.00813e+06,4808.64,53,6,-0.001060145,2.499999,-0.00265036,0.00143226,0.001415808,0.004675245,0.004096387,4863.891,4808.029,0,98.85136,,
	05/26/2022 09:56:09.693,1.01775e+06,4779.51,54,6,-0.001060179,2.499986,-0.00265043,0.00142367,0.00140719,0.004647584,0.004071797,4834.812,4778.749,0,98.84244,,
	05/26/2022 12:35:10.714,1.02729e+06,4743.73,55,6,-0.001060112,2.49999,-0.00265027,0.001412386,0.00139666,0.004610625,0.00404123,4796.401,4742.864,0,98.88654,,
	05/26/2022 15:12:53.511,1.03675e+06,4701.56,56,6,-0.001060126,2.499984,-0.0026503,0.001401813,0.001384233,0.004576228,0.004004905,4760.449,4700.782,0,98.74584,,
	05/26/2022 17:49:23.452,1.04614e+06,4668.25,57,6,-0.001060109,2.499993,-0.00265027,0.001390139,0.001374459,0.004538953,0.003976723,4720.807,4667.485,0,98.87202,,
	05/26/2022 20:24:46.158,1.05546e+06,4634.35,58,6,-0.001060118,2.499988,-0.00265028,0.001380358,0.00136451,0.004507015,0.003947992,4687.484,4633.62,0,98.85184,,
	05/26/2022 22:59:03.949,1.06472e+06,4603.75,59,6,-0.00105986,2.499991,-0.00264964,0.001370274,0.001355494,0.00447428,0.003921845,4653.381,4603.051,0,98.92138,,
	05/27/2022 01:32:17.233,1.07391e+06,4569.27,60,6,-0.001060101,2.499997,-0.00265025,0.001361423,0.001345274,0.004445599,0.003892625,4623.246,4568.463,0,98.81382,,
	05/27/2022 04:04:23.383,1083039.709,4537.01,61,6,-0.001060117,2.499991,-0.00265028,0.001351122,0.001335815,0.00441218,0.003865311,4588.224,4536.208,0,98.86707,,
	05/27/2022 06:35:27.487,1.0921e+06,4506.73,62,6,-0.001060101,2.499982,-0.00265023,0.00134181,0.001326895,0.004381892,0.003839558,4556.576,4505.988,0,98.8884,,
	05/27/2022 09:05:30.350,1.10111e+06,4476.99,63,6,-0.001060109,2.499986,-0.00265026,0.001332539,0.001318155,0.004351745,0.003814177,4525.109,4476.3,0,98.92056,,
	05/27/2022 11:34:33.054,1.11005e+06,4446.78,64,6,-0.001060147,2.499982,-0.00265035,0.001323742,0.001309245,0.004323227,0.00378826,4495.189,4445.947,0,98.90486,,
	05/27/2022 14:02:39.718,1.11894e+06,4417.93,65,6,-0.001060094,2.499995,-0.00265023,0.001315672,0.00130076,0.00429691,0.003764305,4467.816,4417.201,0,98.86662,,
	05/27/2022 16:29:48.578,1.12776e+06,4390.17,66,6,-0.001060089,2.499999,-0.00265022,0.001306847,0.001292561,0.004268127,0.003740513,4437.948,4389.319,0,98.90684,,
	05/27/2022 18:55:51.380,1136527.706,4355.46,67,6,-0.001059842,2.499991,-0.0026496,0.001297631,0.001282374,0.004238287,0.003710925,4406.583,4354.748,0,98.82421,,
	05/27/2022 21:20:51.000,1.14523e+06,4326.4,68,6,-0.00105984,2.499984,-0.00264958,0.001287541,0.001273809,0.004205747,0.003685983,4372.372,4325.647,0,98.93349,,
	05/27/2022 23:44:52.377,1153868.703,4296.501,69,6,-0.001060152,2.499988,-0.00265037,0.001279184,0.001264957,0.004178652,0.003660227,4343.984,4295.709,0,98.88776,,
	05/28/2022 02:07:52.954,1.16245e+06,4266.17,70,6,-0.001060145,2.499997,-0.00265036,0.001270271,0.001256022,0.004149691,0.003634436,4313.69,4265.506,0,98.87827,,
	05/28/2022 04:29:56.570,1.17097e+06,4239.135,71,6,-0.001059816,2.499997,-0.00264954,0.001261427,0.001248067,0.004120977,0.003611372,4283.678,4238.32,0,98.94088,,
	05/28/2022 06:51:03.996,1.17944e+06,4209.29,72,6,-0.001060162,2.499976,-0.00265038,0.001253659,0.001239323,0.004095776,0.003585972,4257.265,4208.55,0,98.85641,,
	05/28/2022 09:11:15.080,1.18785e+06,4183.18,73,6,-0.001060113,2.499993,-0.00265028,0.001244762,0.001231632,0.004066834,0.003564051,4227.058,4182.382,0,98.94519,,
	05/28/2022 11:30:39.274,1.19622e+06,4158.89,74,6,-0.001060087,2.499984,-0.0026502,0.001238139,0.001224458,0.004044826,0.003543756,4204.582,4158.078,0,98.89508,,
	05/28/2022 13:49:16.662,1.20453e+06,4137.33,75,6,-0.001060157,2.499997,-0.00265039,0.001230644,0.001218137,0.004020586,0.003525536,4179.166,4136.587,0,98.98371,,
	05/28/2022 16:06:59.268,1.2128e+06,4108.57,76,6,-0.001060151,2.499997,-0.00265037,0.001223026,0.001209649,0.003995653,0.003500882,4153.33,4107.802,0,98.90618,,
	05/28/2022 18:23:45.939,1.221e+06,4079.59,77,6,-0.001060113,2.499978,-0.00265026,0.00121507,0.001201063,0.003969723,0.003476161,4126.282,4078.83,0,98.84721,,
	05/28/2022 20:39:34.044,1.22915e+06,4051.81,78,6,-0.00106012,2.499984,-0.00265028,0.001205973,0.00119292,0.003940173,0.003452227,4095.345,4050.94,0,98.91764,,
	05/28/2022 22:54:25.535,1.23724e+06,4023.35,79,6,-0.001060179,2.499999,-0.00265045,0.001197721,0.001184582,0.003913693,0.003427991,4067.314,4022.607,0,98.90299,,
	05/29/2022 01:08:22.889,1.24528e+06,3997.13,80,6,-0.00106015,2.499999,-0.00265037,0.00118953,0.001176851,0.003887119,0.003405419,4039.515,3996.412,0,98.93417,,
	05/29/2022 03:21:27.842,1.25326e+06,3970.95,81,6,-0.001060127,2.499993,-0.00265031,0.001181796,0.00116917,0.00386205,0.003383188,4013.179,3970.289,0,98.93164,,
	05/29/2022 05:33:43.461,1.2612e+06,3947.47,82,6,-0.001060182,2.499995,-0.00265045,0.00117422,0.001162242,0.003837416,0.003362938,3987.498,3946.826,0,98.97997,,
	05/29/2022 07:45:11.297,1.26909e+06,3923.48,83,6,-0.001060112,2.499999,-0.00265028,0.001167148,0.001155184,0.003814362,0.003342428,3963.553,3922.782,0,98.97501,,
	05/29/2022 09:55:56.831,1.27693e+06,3903.44,84,6,-0.001060103,2.499982,-0.00265024,0.001160593,0.001149261,0.003793014,0.003325704,3941.21,3902.681,0,99.0236,,
	05/29/2022 12:06:07.260,1.28474e+06,3884.44,85,6,-0.001059852,2.499999,-0.00264963,0.001155862,0.001143592,0.003777054,0.003309729,3925.181,3883.843,0,98.9384,,
	05/29/2022 14:15:30.529,1.29251e+06,3859.66,86,6,-0.00106014,2.499995,-0.00265034,0.001149261,0.001136333,0.003755634,0.003288849,3902.938,3858.95,0,98.87513,,
	05/29/2022 16:24:01.239,1.30022e+06,3836.83,87,6,-0.001060118,2.499976,-0.00265027,0.001140487,0.001129637,0.003727205,0.003268892,3873.175,3836.039,0,99.04864,,
	05/29/2022 18:31:48.837,1.30789e+06,3812.11,88,6,-0.00106015,2.499995,-0.00265037,0.001135039,0.001122353,0.003709456,0.003248169,3854.629,3811.406,0,98.88232,,
	05/29/2022 20:38:52.664,1315508.99,3791.23,89,6,-0.00106015,2.499997,-0.00265037,0.001128282,0.001116232,0.003687136,0.003230555,3831.809,3790.521,0,98.93198,,
	05/29/2022 22:45:02.671,1323078.997,3764.74,90,6,-0.001060154,2.499997,-0.00265038,0.001120314,0.001108388,0.003661391,0.003207606,3804.563,3763.962,0,98.93549,,
	05/30/2022 00:50:26.020,1.3306e+06,3740.271,91,6,-0.001060117,2.499995,-0.00265029,0.001113802,0.001101251,0.003640229,0.003186902,3782.353,3739.731,0,98.87315,,
	05/30/2022 02:54:54.874,1.33807e+06,3714.08,92,6,-0.001060099,2.499999,-0.00265025,0.001105514,0.001093543,0.003613324,0.003164497,3754.153,3713.544,0,98.91708,,
	05/30/2022 04:58:41.012,1.3455e+06,3696.27,93,6,-0.001060112,2.499993,-0.00265027,0.001098142,0.001088271,0.003589408,0.003149001,3729.118,3695.571,0,99.10117,,
	05/30/2022 07:01:49.430,1.35289e+06,3674.74,94,6,-0.001060099,2.499993,-0.00265024,0.001093361,0.001081922,0.003573802,0.003130719,3712.872,3674.042,0,98.95379,,
	05/30/2022 09:04:15.230,1.36023e+06,3655.3,95,6,-0.001060104,2.499984,-0.00265024,0.001086575,0.001076232,0.003551725,0.003113983,3689.844,3654.7,0,99.0481,,
	05/30/2022 11:06:03.737,1.36754e+06,3634.807,96,6,-0.001059842,2.499995,-0.0026496,0.001081633,0.001070076,0.003535557,0.003096433,3673.069,3634.149,0,98.93154,,
	05/30/2022 13:07:05.851,1374802.177,3612.3,97,6,-0.001060175,2.499997,-0.00265043,0.00107449,0.001063431,0.003511979,0.00307719,3648.952,3611.498,0,98.97073,,
	05/30/2022 15:07:24.736,1.38202e+06,3590.89,98,6,-0.001060138,2.499991,-0.00265034,0.001068059,0.001057204,0.00349123,0.003058987,3627.232,3590.213,0,98.98369,,
	05/30/2022 17:07:03.410,1.3892e+06,3571.29,99,6,-0.001060134,2.499991,-0.00265033,0.001062047,0.001051446,0.003471715,0.003042289,3606.785,3570.658,0,99.00185,,
	05/30/2022 19:06:06.504,1.39634e+06,3556.08,100,6,-0.001060117,2.499997,-0.00265029,0.001056033,0.001046992,0.003452171,0.003029201,3586.355,3555.443,0,99.14389,,
	05/30/2022 21:04:31.311,1.40345e+06,3531.38,101,6,-0.001060145,2.499999,-0.00265036,0.001051992,0.001039732,0.003438833,0.003008198,3572.607,3530.731,0,98.83459,,
	05/30/2022 23:02:13.719,1.41051e+06,3515.7,102,6,-0.00106007,2.499995,-0.00265017,0.001044153,0.0010351,0.003413335,0.002994892,3545.937,3515.079,0,99.13303,,
	05/31/2022 00:59:23.206,1.41754e+06,3496.96,103,6,-0.001060106,2.499997,-0.00265026,0.001040049,0.001029576,0.00339999,0.002978803,3531.966,3496.299,0,98.993,,
	05/31/2022 02:55:49.571,1.42453e+06,3475,104,6,-0.001060129,2.499999,-0.00265032,0.001033799,0.001023092,0.003379633,0.002959898,3510.68,3474.261,0,98.96426,,
	05/31/2022 04:51:33.047,1431469.373,3454.34,105,6,-0.001060143,2.499976,-0.00265033,0.001027249,0.00101702,0.003358358,0.002942021,3488.354,3453.679,0,99.00415,,
	05/31/2022 06:46:39.764,1.43838e+06,3436.48,106,6,-0.00106012,2.499988,-0.00265029,0.001021691,0.001011804,0.00334022,0.002926993,3469.528,3435.944,0,99.03226,,
	05/31/2022 08:41:06.072,1.44524e+06,3414.919,107,6,-0.001060147,2.499993,-0.00265036,0.001016159,0.001005453,0.003322188,0.00290852,3450.722,3414.337,0,98.94639,,
	05/31/2022 10:35:00.063,1.45208e+06,3400.93,108,6,-0.001060115,2.499999,-0.00265029,0.001010777,0.00100131,0.00330477,0.00289679,3432.412,3400.244,0,99.06336,,
	05/31/2022 12:28:16.066,1458872.392,3380.99,109,6,-0.001060123,2.499984,-0.00265029,0.001005378,0.0009954444,0.00328691,0.002879476,3414.316,3380.387,0,99.01191,,
	05/31/2022 14:20:50.488,1.46563e+06,3359.41,110,6,-0.001060168,2.499999,-0.00265042,0.0009994848,0.0009891067,0.003267813,0.002861011,3394.298,3358.881,0,98.96166,,
	05/31/2022 16:12:47.612,1.47234e+06,3342,111,6,-0.001060134,2.499984,-0.00265032,0.0009936502,0.0009839532,0.003248941,0.002846225,3374.478,3341.387,0,99.02411,,
	05/31/2022 18:04:09.843,1.47903e+06,3324.5,112,6,-0.001060134,2.499991,-0.00265033,0.0009884743,0.0009787147,0.003231886,0.002830963,3356.947,3323.863,0,99.01265,,
	05/31/2022 19:54:57.789,1.48567e+06,3308.22,113,6,-0.001060101,2.499999,-0.00265025,0.0009832537,0.0009740409,0.003214724,0.002817448,3339.154,3307.683,0,99.06303,,
	05/31/2022 21:45:18.305,1492294.631,3294.5,114,6,-0.001060103,2.499984,-0.00265024,0.0009791865,0.0009699739,0.003201438,0.002806041,3325.38,3293.861,0,99.05917,,
	05/31/2022 23:35:02.695,1.49888e+06,3275.2,115,6,-0.001060071,2.499993,-0.00265017,0.0009742273,0.0009642886,0.003184994,0.002789217,3308.513,3274.577,0,98.97983,,
	06/01/2022 01:24:06.002,1.50542e+06,3254.51,116,6,-0.001060138,2.499991,-0.00265034,0.0009682806,0.0009581955,0.003166083,0.002771411,3288.192,3253.902,0,98.95845,,
	06/01/2022 03:12:34.108,1.51193e+06,3238.59,117,6,-0.001059823,2.49999,-0.00264955,0.0009625801,0.0009534509,0.003147309,0.002757638,3268.814,3237.943,0,99.05159,,
	06/01/2022 05:00:26.620,1.5184e+06,3220.18,118,6,-0.001060136,2.499974,-0.00265031,0.0009575197,0.0009480928,0.003130848,0.00274194,3251.679,3219.564,0,99.01549,,
	06/01/2022 06:47:44.439,1524840.765,3204.33,119,6,-0.001060117,2.499999,-0.00265029,0.0009519862,0.0009434397,0.00311272,0.002728413,3232.897,3203.887,0,99.10225,,
	06/01/2022 08:34:31.199,1.53125e+06,3187.29,120,6,-0.00106015,2.499999,-0.00265037,0.0009478519,0.0009383137,0.003099283,0.002713572,3218.805,3186.667,0,98.9937,,
	06/01/2022 10:20:45.135,1537621.461,3172.39,121,6,-0.001059863,2.499991,-0.00264965,0.0009425666,0.000934011,0.003082043,0.002700985,3200.904,3171.794,0,99.09232,,
	06/01/2022 12:06:25.155,1.54396e+06,3154.41,122,6,-0.001060118,2.499991,-0.00265029,0.0009378624,0.0009287719,0.003066686,0.002685721,3185.049,3153.924,0,99.03072,,
	06/01/2022 13:51:38.897,1.55028e+06,3140.923,123,6,-0.001060117,2.499995,-0.00265029,0.0009340836,0.0009247217,0.003054123,0.002674175,3172.198,3140.259,0,98.99774,,
	06/01/2022 15:36:12.172,1.55655e+06,3121.78,124,6,-0.001060152,2.499995,-0.00265037,0.000927791,0.0009191019,0.003033829,0.00265736,3150.771,3121.115,0,99.06346,,
	06/01/2022 17:20:14.183,1.56279e+06,3106.16,125,6,-0.001060112,2.499993,-0.00265027,0.0009232136,0.0009145266,0.003018941,0.002644239,3135.203,3105.605,0,99.05905,,
	06/01/2022 19:03:47.138,1.569e+06,3090.96,126,6,-0.00106005,2.499991,-0.00265012,0.0009191601,0.0009100665,0.003005518,0.002631229,3121.454,3090.544,0,99.01067,,
	06/01/2022 20:46:41.135,1.57518e+06,3072.01,127,6,-0.001060045,2.499986,-0.0026501,0.0009132496,0.0009044614,0.002986429,0.002614621,3101.357,3071.438,0,99.0377,,
	06/01/2022 22:29:09.152,1.58133e+06,3059.74,128,6,-0.001060085,2.49999,-0.0026502,0.0009091613,0.0009008201,0.002973072,0.002604379,3087.553,3059.101,0,99.08253,,
	06/02/2022 00:11:05.978,1.58744e+06,3043.27,129,6,-0.001060057,2.499995,-0.00265014,0.000904873,0.0008960474,0.002958975,0.002590412,3072.914,3042.835,0,99.02467,,
	06/02/2022 01:52:28.293,1.59352e+06,3026.19,130,6,-0.001060136,2.499997,-0.00265034,0.0008997399,0.0008909742,0.002942272,0.002575458,3055.502,3025.59,0,99.02576,,
	06/02/2022 03:33:18.887,1.59958e+06,3011.76,131,6,-0.001060122,2.499963,-0.00265027,0.0008946214,0.0008867236,0.002925575,0.002563073,3038.078,3011.178,0,99.11719,,
	06/02/2022 05:13:42.846,1.6056e+06,2997.08,132,6,-0.001060126,2.49999,-0.0026503,0.0008911611,0.0008823922,0.002914175,0.002550557,3026.288,2996.531,0,99.01602,,
	06/02/2022 06:53:36.611,1.61159e+06,2983.053,133,6,-0.001060145,2.49999,-0.00265035,0.0008864016,0.0008782752,0.002898694,0.002538416,3010.083,2982.483,0,99.08321,,
	06/02/2022 08:33:02.888,1617559.214,2969.41,134,6,-0.001060138,2.499995,-0.00265034,0.0008823127,0.000874257,0.002885363,0.002526792,2996.234,2968.83,0,99.08698,,
	06/02/2022 10:11:58.003,1623494.329,2953.33,135,6,-0.001060168,2.49999,-0.00265041,0.0008778854,0.0008695379,0.002870862,0.00251298,2981.164,2952.813,0,99.04913,,
	06/02/2022 11:50:22.196,1.6294e+06,2937.51,136,6,-0.001060129,2.499991,-0.00265031,0.0008734587,0.0008648667,0.002856393,0.002499422,2966.178,2937.017,0,99.01632,,
	06/02/2022 13:28:18.895,1.63528e+06,2924.536,137,6,-0.001060162,2.499999,-0.0026504,0.0008691734,0.0008610616,0.002842415,0.002488197,2951.643,2924.029,0,99.06673,,
	06/02/2022 15:05:44.460,1.64112e+06,2908.13,138,6,-0.001060148,2.499991,-0.00265036,0.0008647573,0.000856185,0.002828067,0.002474066,2936.702,2907.583,0,99.00871,,
	06/02/2022 16:42:42.067,1.64694e+06,2895.98,139,6,-0.001060133,2.499991,-0.00265032,0.0008601464,0.000852665,0.00281301,0.002463862,2921.119,2895.524,0,99.13023,,
	06/02/2022 18:19:15.472,1.65273e+06,2881.99,140,6,-0.001060115,2.499997,-0.00265028,0.0008571292,0.0008485317,0.002802763,0.00245188,2910.855,2881.463,0,98.99693,,
	06/02/2022 19:55:09.954,1658486.28,2862.31,141,6,-0.001060101,2.499999,-0.00265025,0.000851442,0.0008427102,0.002784435,0.002434585,2891.517,2861.71,0,98.97446,,
	06/02/2022 21:30:33.194,1.66421e+06,2848.48,142,6,-0.001060138,2.499999,-0.00265034,0.0008463416,0.0008386558,0.002767939,0.002422832,2874.134,2847.958,0,99.09188,,
	06/02/2022 23:05:30.819,1.66991e+06,2835.72,143,6,-0.001060113,2.499991,-0.00265027,0.0008425828,0.0008349033,0.00275547,0.002411878,2861.321,2835.218,0,99.08858,,
	06/03/2022 00:40:04.444,1.67558e+06,2823.32,144,6,-0.001060148,2.499988,-0.00265036,0.0008391918,0.0008312295,0.00274433,0.002401307,2849.761,2822.767,0,99.05119,,
	06/03/2022 02:14:06.226,1.68122e+06,2806.48,145,6,-0.001060103,2.499993,-0.00265025,0.000834738,0.0008262814,0.002729825,0.002386809,2834.662,2805.903,0,98.98693,,
	06/03/2022 03:47:37.671,1.68683e+06,2792.17,146,6,-0.001060101,2.499993,-0.00265025,0.0008300435,0.0008220868,0.002714396,0.002374605,2818.707,2791.695,0,99.04141,,
	06/03/2022 05:20:41.644,1.69242e+06,2779.28,147,6,-0.001060064,2.499993,-0.00265015,0.0008257465,0.0008183165,0.002700389,0.002363677,2804.096,2778.888,0,99.10021,,
	06/03/2022 06:53:20.446,1.69798e+06,2765.56,148,6,-0.001060127,2.499991,-0.00265031,0.0008223913,0.0008142187,0.00268957,0.002351646,2792.688,2765.006,0,99.00624,,
	06/03/2022 08:25:32.992,1.70351e+06,2754.46,149,6,-0.001060089,2.499988,-0.00265021,0.0008179301,0.0008109747,0.002674995,0.002342203,2777.544,2753.959,0,99.14964,,
	06/03/2022 09:57:16.106,1.70901e+06,2737.636,150,6,-0.001060117,2.499986,-0.00265028,0.0008141723,0.0008060531,0.002662584,0.00232779,2764.936,2737.264,0,99.00276,,
	06/03/2022 11:28:34.831,1.71449e+06,2726.48,151,6,-0.001060046,2.499974,-0.00265009,0.0008102818,0.0008027463,0.002649983,0.002318149,2751.837,2726.037,0,99.07001,,
	06/03/2022 12:59:20.145,1.71994e+06,2708.76,152,6,-0.001060147,2.499999,-0.00265037,0.0008056528,0.0007975049,0.002634712,0.002302828,2735.955,2708.242,0,98.98866,,
	06/03/2022 14:29:39.574,1725355.9,2696.618,153,6,-0.001060076,2.499991,-0.00265018,0.0008016439,0.0007939358,0.002621752,0.002292461,2722.277,2696.073,0,99.03847,,
	06/03/2022 15:59:26.868,1.73074e+06,2680.18,154,6,-0.001060101,2.499978,-0.00265023,0.0007970022,0.0007891197,0.002606696,0.002278232,2706.558,2679.712,0,99.01098,,
	06/03/2022 17:28:45.107,1.7361e+06,2665.45,155,6,-0.001060066,2.499997,-0.00265016,0.0007928021,0.0007848008,0.002593026,0.002265674,2692.248,2665.086,0,98.99076,,
	06/03/2022 18:57:35.182,1.74143e+06,2651.62,156,6,-0.00106009,2.49999,-0.00265021,0.000788593,0.0007806983,0.002579297,0.002253822,2677.957,2651.182,0,98.99889,,
	06/03/2022 20:25:57.029,1.74673e+06,2639.04,157,6,-0.001060094,2.499991,-0.00265023,0.0007839903,0.0007769638,0.002564121,0.002242831,2662.333,2638.473,0,99.10374,,
	06/03/2022 21:53:56.838,1.75201e+06,2625.89,158,6,-0.001060127,2.499991,-0.00265031,0.0007813269,0.0007731479,0.002555422,0.002231797,2653.314,2625.478,0,98.95319,,
	06/03/2022 23:21:21.344,1757257.67,2609.04,159,6,-0.001060076,2.49999,-0.00265018,0.0007759179,0.0007681606,0.002537597,0.00221735,2634.887,2608.616,0,99.00024,,
	06/04/2022 00:48:19.048,1.76248e+06,2595.95,160,6,-0.00106012,2.499999,-0.0026503,0.0007717945,0.0007642665,0.002524141,0.002205906,2620.997,2595.379,0,99.02461,,
	06/04/2022 02:14:49.068,1.76767e+06,2581.61,161,6,-0.001060138,2.499991,-0.00265034,0.0007679411,0.0007600801,0.002511593,0.002193715,2607.961,2581.17,0,98.97636,,
	06/04/2022 03:40:46.658,1.77282e+06,2565.06,162,6,-0.001060109,2.499967,-0.00265024,0.0007631356,0.0007552032,0.002495753,0.002179566,2591.801,2564.632,0,98.96056,,
	06/04/2022 05:06:16.074,1.77795e+06,2551.6,163,6,-0.001060109,2.49999,-0.00265026,0.0007589589,0.0007511982,0.002482228,0.002167887,2577.521,2550.968,0,98.97746,,
	06/04/2022 06:31:15.889,1.78305e+06,2536.5,164,6,-0.001060085,2.499993,-0.00265021,0.0007546193,0.0007468025,0.002468012,0.002155037,2562.745,2536.05,0,98.96414,,
	06/04/2022 07:55:46.901,1788123.227,2521.53,165,6,-0.001060113,2.49998,-0.00265026,0.0007504914,0.0007424053,0.002454609,0.00214234,2549.014,2521.109,0,98.92255,,
	06/04/2022 09:19:43.232,1.79316e+06,2504.76,166,6,-0.00106009,2.499995,-0.00265022,0.0007452804,0.0007374251,0.00243753,0.002127709,2530.935,2504.225,0,98.946,,
	06/04/2022 10:43:12.223,1.79817e+06,2492.38,167,6,-0.001060098,2.499993,-0.00265024,0.0007408222,0.0007338224,0.002423011,0.002117187,2515.917,2491.961,0,99.05513,,
	06/04/2022 12:06:12.014,1.80315e+06,2476.49,168,6,-0.001060164,2.49999,-0.0026504,0.0007369809,0.0007291556,0.00241042,0.002103668,2502.669,2476.083,0,98.93818,,
	06/04/2022 13:28:42.748,1.8081e+06,2461.15,169,6,-0.001060111,2.499995,-0.00265027,0.000732965,0.0007245933,0.002397289,0.002090469,2489.03,2460.587,0,98.85784,,
	06/04/2022 14:50:40.299,1.81302e+06,2446,170,6,-0.001060123,2.499984,-0.00265029,0.0007276197,0.0007201693,0.002379951,0.002077377,2470.89,2445.586,0,98.97607,,
	06/04/2022 16:12:06.089,1.8179e+06,2430.99,171,6,-0.00106014,2.499997,-0.00265035,0.0007227667,0.0007157166,0.002364107,0.002064332,2454.48,2430.444,0,99.02457,,
	06/04/2022 17:33:04.451,1.82276e+06,2415.66,172,6,-0.001060118,2.499995,-0.00265029,0.0007191104,0.0007112487,0.002352186,0.002051346,2442.059,2415.269,0,98.90675,,
	06/04/2022 18:53:33.176,1.82759e+06,2402.23,173,6,-0.001060103,2.499969,-0.00265022,0.0007144209,0.0007072622,0.002336852,0.002039762,2426.084,2401.758,0,98.99796,,
	06/04/2022 20:13:34.873,1.83239e+06,2387.19,174,6,-0.001060157,2.49999,-0.00265038,0.0007107957,0.0007027946,0.002324997,0.002026713,2413.799,2386.581,0,98.87435,,
	06/04/2022 21:33:06.358,1.83716e+06,2373.33,175,6,-0.001060124,2.499993,-0.0026503,0.0007060519,0.0006988054,0.002309537,0.00201517,2397.696,2373.002,0,98.97367,,
	06/04/2022 22:52:09.723,1.84191e+06,2358.18,176,6,-0.001060124,2.499982,-0.00265029,0.0007022056,0.0006942471,0.002296816,0.002001958,2384.613,2357.594,0,98.86664,,
	06/05/2022 00:10:39.205,1.84662e+06,2341.71,177,6,-0.001060106,2.499995,-0.00265026,0.0006971241,0.0006894635,0.002280272,0.001988053,2367.368,2341.304,0,98.90112,,
	06/05/2022 01:28:39.689,1.8513e+06,2327.54,178,6,-0.001060099,2.49999,-0.00265024,0.0006926752,0.0006852294,0.002265761,0.001975652,2352.33,2326.925,0,98.92506,,
	06/05/2022 02:46:11.582,1.85595e+06,2313.43,179,6,-0.001060108,2.499997,-0.00265027,0.0006884803,0.0006810629,0.002252037,0.001963563,2338.052,2312.807,0,98.92265,,
	06/05/2022 04:03:17.306,1.86057e+06,2300.28,180,6,-0.001060136,2.499991,-0.00265033,0.0006845779,0.0006771921,0.002239281,0.001952391,2324.771,2299.618,0,98.92112,,
	06/05/2022 05:19:49.401,1.86517e+06,2282.65,181,6,-0.001060136,2.499997,-0.00265034,0.0006799211,0.0006720849,0.00222409,0.00193744,2308.962,2282.294,0,98.84747,,
	06/05/2022 06:35:51.954,1.86973e+06,2269.11,182,6,-0.001060118,2.499999,-0.00265029,0.0006752156,0.0006679989,0.002208654,0.001925647,2292.982,2268.445,0,98.93119,,
	06/05/2022 07:51:27.041,1.87426e+06,2255.11,183,6,-0.001060118,2.499995,-0.00265029,0.0006711984,0.0006639514,0.002195494,0.001913867,2279.313,2254.687,0,98.9203,,
	06/05/2022 09:06:35.591,1878771.917,2242.12,184,6,-0.001060109,2.499995,-0.00265027,0.0006672993,0.0006601565,0.002182772,0.001902845,2266.065,2241.793,0,98.9296,,
	06/05/2022 10:21:15.522,1.88325e+06,2226.77,185,6,-0.001060152,2.499991,-0.00265037,0.0006633457,0.0006555559,0.002169855,0.001889467,2252.639,2226.142,0,98.82567,,
	06/05/2022 11:35:22.869,1.8877e+06,2211.48,186,6,-0.001060133,2.499995,-0.00265033,0.0006582282,0.0006511321,0.002153018,0.001876528,2235.304,2211.127,0,98.92195,,
	06/05/2022 12:49:04.534,1.89212e+06,2199.31,187,6,-0.001060127,2.499988,-0.0026503,0.0006542965,0.0006474775,0.002140281,0.001865806,2221.952,2198.701,0,98.95782,,
	06/05/2022 14:02:18.085,1.89651e+06,2184.16,188,6,-0.001060131,2.499991,-0.00265032,0.0006504852,0.000643031,0.002127681,0.001852924,2208.998,2183.597,0,98.85405,,
	06/05/2022 15:14:59.067,1.90088e+06,2167.19,189,6,-0.001060113,2.499991,-0.00265027,0.00064581,0.0006380004,0.002112552,0.001838333,2193.167,2166.635,0,98.79073,,
	06/05/2022 16:27:07.677,1.9052e+06,2151.3,190,6,-0.001060118,2.499986,-0.00265028,0.0006409744,0.0006334189,0.002096718,0.001824985,2176.717,2150.969,0,98.82124,,
	06/05/2022 17:38:48.509,1.9095e+06,2137.955,191,6,-0.001060154,2.499995,-0.00265038,0.0006367843,0.0006294597,0.002082971,0.001813583,2162.485,2137.593,0,98.84975,,
	06/05/2022 18:49:58.362,1.91377e+06,2122.99,192,6,-0.001060159,2.499982,-0.00265038,0.0006320545,0.0006250959,0.002067437,0.001800782,2146.408,2122.706,0,98.89906,,
	06/05/2022 20:00:34.429,1.91801e+06,2105.33,193,6,-0.001060113,2.49999,-0.00265027,0.0006272928,0.000619816,0.002051965,0.001785431,2130.246,2104.782,0,98.80808,,
	06/05/2022 21:10:45.372,1.92222e+06,2093.75,194,6,-0.001060087,2.499993,-0.00265021,0.0006232717,0.0006164107,0.002038985,0.001775692,2116.567,2093.228,0,98.89919,,
	06/05/2022 22:20:29.630,1.92641e+06,2080.74,195,6,-0.001060106,2.499976,-0.00265024,0.0006193107,0.0006126369,0.002025873,0.001764506,2103.088,2080.398,0,98.92239,,
	06/05/2022 23:29:45.470,1.93056e+06,2065.36,196,6,-0.001060154,2.499978,-0.00265036,0.0006154324,0.0006080803,0.002013254,0.001751483,2089.998,2064.918,0,98.80537,,
	06/06/2022 00:38:31.210,1934687.536,2050.94,197,6,-0.001060154,2.499999,-0.00265038,0.0006108487,0.000603804,0.001998161,0.001738962,2074.354,2050.418,0,98.84674,,
	06/06/2022 01:46:49.951,1.93879e+06,2037.751,198,6,-0.001060103,2.499988,-0.00265024,0.0006067597,0.0005999263,0.001984889,0.001727619,2060.458,2037.246,0,98.87377,,
	06/06/2022 02:54:36.835,1.94285e+06,2020.77,199,6,-0.001060138,2.499972,-0.00265032,0.0006023809,0.0005949733,0.00197056,0.001713391,2045.638,2020.455,0,98.77027,,
	06/06/2022 04:01:52.383,1.94689e+06,2006.766,200,6,-0.001060111,2.499991,-0.00265027,0.0005973146,0.0005907998,0.001953878,0.001701191,2028.412,2006.281,0,98.90932,,