File: Cell-test-data/SiMP-LFP-PFF1/JB4_SiMP-LFP-PFF1_Channel_77_StatisticByStep.CSV
Date_Time                    ,Test Time (s),Step Time (s),Cycle Index,Step Index,Current (A),Voltage (V),Power (W),Charge Capacity (Ah),Discharge Capacity (Ah),Charge Energy (Wh),Discharge Energy (Wh),Charge Time (s),Discharge Time (s),V_Max_On_Cycle (V),Coulombic Efficiency (%),mAh/g
	08/05/2022 01:52:57.489,43200,43200,1.00,1.00,0,0.2645588,0,0,0,0,0,0,0,0,0,,
	08/08/2022 04:15:29.627,310952,63246.6,2.00,3.00,-0.0001589982,2.499997,-0.000397495,0.002874814,0.002793099,0.009289187,0.008266537,65090.54,63238.53,0,97.15756,,
	08/09/2022 20:01:08.121,454091,8331.84,4.00,6.00,-0.001060111,2.499984,-0.00265026,0.002577791,0.002453145,0.008406938,0.007115497,8754.808,8330.781,0,95.1646,,
	08/10/2022 05:03:57.046,486660,8017.33,6.00,6.00,-0.001059987,2.499995,-0.00264996,0.002398344,0.00236038,0.007801607,0.006830847,8144.72,8016.337,0,98.41708,,
	08/10/2022 13:52:49.014,518392,7842.63,8.00,6.00,-0.001060057,2.499986,-0.00265013,0.002341197,0.002309174,0.007615858,0.006681669,7950.631,7841.628,0,98.63219,,
	08/10/2022 22:32:13.207,549556,7682.64,10.00,6.00,-0.001060127,2.499995,-0.00265031,0.002300218,0.002262071,0.007477259,0.00654849,7812.245,7681.673,0,98.34159,,
	08/11/2022 06:57:50.856,579893,7450.69,12.00,6.00,-0.001059996,2.499995,-0.00264998,0.002235245,0.002193588,0.007268193,0.006346965,7590.924,7449.735,0,98.13638,,
	08/11/2022 15:08:09.725,609312,7263.55,14.00,6.00,-0.001060136,2.499995,-0.00265033,0.002172347,0.002138671,0.007067502,0.006191764,7377.742,7262.66,0,98.44979,,
	08/11/2022 23:07:35.818,638078,7076.44,16.00,6.00,-0.001060108,2.499999,-0.00265027,0.002122435,0.002083507,0.006903873,0.00603517,7208.251,7075.561,0,98.16591,,
	08/12/2022 06:51:23.206,665906,6832.87,18.00,6.00,-0.001060024,2.499982,-0.00265004,0.002049144,0.002011566,0.006671967,0.005822323,6958.688,6831.954,0,98.16614,,
	08/12/2022 14:22:03.390,692946,6680.32,20.00,6.00,-0.001060141,2.499999,-0.00265035,0.001996401,0.001966965,0.006503129,0.005699164,6779.816,6679.521,0,98.52557,,
	08/12/2022 21:44:33.641,719496,6536.42,22.00,6.00,-0.001060081,2.499976,-0.00265018,0.001958643,0.001924548,0.00637699,0.005581436,6651.961,6535.56,0,98.25922,,
	08/13/2022 04:54:33.931,745296,6343.35,24.00,6.00,-0.001060057,2.499991,-0.00265013,0.001900936,0.001867571,0.006192846,0.005414995,6455.657,6342.556,0,98.24485,,
	08/13/2022 11:51:42.830,770325,6166.14,26.00,6.00,-0.001060089,2.499995,-0.00265022,0.00184283,0.00181546,0.006008483,0.005263702,6258.067,6165.341,0,98.51477,,
	08/13/2022 18:40:10.626,794833,6028.03,28.00,6.00,-0.001059936,2.499988,-0.00264983,0.001805695,0.001774717,0.005885818,0.005147658,6132.018,6027.295,0,98.28439,,
	08/14/2022 01:17:49.020,818692,5880.43,30.00,6.00,-0.001060022,2.499991,-0.00265005,0.001760443,0.001731201,0.005740538,0.00502244,5978.302,5879.701,0,98.33897,,
	08/14/2022 07:45:20.368,841943,5730.2,32.00,6.00,-0.00105994,2.499999,-0.00264985,0.001714053,0.001686935,0.00559202,0.004893562,5820.742,5729.477,0,98.41785,,
	08/14/2022 14:04:33.147,864696,5619.06,34.00,6.00,-0.001059948,2.499995,-0.00264986,0.001681793,0.001654282,0.005486054,0.004801641,5711.549,5618.395,0,98.36418,,
	08/14/2022 20:14:15.040,886878,5481.32,36.00,6.00,-0.001060019,2.499997,-0.00265004,0.001636037,0.001613808,0.005340658,0.00468392,5555.74,5480.668,0,98.64128,,
	08/15/2022 02:18:07.812,908710,5388.71,38.00,6.00,-0.001060039,2.499986,-0.00265008,0.001611209,0.001586551,0.00525785,0.004608231,5471.767,5388.046,0,98.46963,,
	08/15/2022 08:14:06.343,930069,5271.29,40.00,6.00,-0.001060034,2.499991,-0.00265008,0.001575837,0.001551953,0.005143245,0.004507981,5351.604,5270.604,0,98.48431,,
	08/15/2022 14:02:45.908,950988,5167.65,42.00,6.00,-0.001059997,2.499991,-0.00264998,0.001544489,0.001521436,0.005041088,0.004420802,5245.327,5166.989,0,98.50735,,
	08/15/2022 19:43:10.683,971413,5041.38,44.00,6.00,-0.001060043,2.499986,-0.00265009,0.00150522,0.001484306,0.004915485,0.004311259,5111.677,5040.768,0,98.61059,,
	08/16/2022 01:18:28.779,991531,4979.54,46.00,6.00,-0.001060097,2.499986,-0.00265023,0.001486638,0.00146612,0.004853114,0.004263176,5049.149,4978.876,0,98.61984,,
	08/16/2022 06:48:31.787,1.01133e+06,4893.06,48.00,6.00,-0.001060143,2.49999,-0.00265035,0.001460931,0.00144072,0.00476888,0.004190625,4961.975,4892.459,0,98.61656,,
	08/16/2022 12:10:26.956,1.03065e+06,4750.51,50.00,6.00,-0.001060027,2.499976,-0.00265004,0.001419911,0.00139863,0.004638155,0.004063574,4822.071,4749.955,0,98.50119,,
	08/16/2022 17:23:55.375,1.04946e+06,4644.55,52.00,6.00,-0.001060048,2.499982,-0.0026501,0.001385943,0.001367471,0.004529435,0.00397196,4706.618,4643.951,0,98.66718,,
	08/16/2022 22:33:03.932,1.06801e+06,4600.18,54.00,6.00,-0.001059857,2.499993,-0.00264964,0.001371493,0.001354366,0.004480581,0.003938473,4658.027,4599.587,0,98.75118,,
	08/17/2022 03:38:36.893,1.08634e+06,4534.24,56.00,6.00,-0.001059859,2.499999,-0.00264965,0.00135299,0.001334914,0.004419078,0.003883721,4595.293,4533.686,0,98.66395,,
	08/17/2022 08:38:59.830,1.10436e+06,4450.85,58.00,6.00,-0.001060126,2.499993,-0.00265031,0.001329727,0.001310409,0.004343152,0.00381255,4516.269,4450.318,0,98.54724,,
	08/17/2022 13:33:04.944,1.12201e+06,4363.21,60.00,6.00,-0.001060164,2.49999,-0.0026504,0.00130158,0.001284641,0.004252474,0.003736813,4420.753,4362.657,0,98.69854,,
	08/17/2022 18:20:52.406,1.13927e+06,4252.19,62.00,6.00,-0.001059973,2.499997,-0.00264993,0.001270415,0.00125187,0.004152521,0.003637886,4314.415,4251.664,0,98.54028,,
	08/17/2022 23:00:41.225,1.15606e+06,4150.81,64.00,6.00,-0.00105998,2.499982,-0.00264993,0.001236748,0.00122199,0.004045725,0.003548604,4199.783,4150.257,0,98.80672,,
	08/18/2022 03:36:03.065,1.17259e+06,4092.25,66.00,6.00,-0.001060036,2.499999,-0.00265009,0.00121936,0.001204856,0.003988627,0.003500121,4141.064,4091.719,0,98.81053,,
	08/18/2022 08:06:54.726,1.18884e+06,4016.06,68.00,6.00,-0.001059945,2.499995,-0.00264986,0.001196686,0.001182272,0.003915323,0.003433347,4064.118,4015.531,0,98.79544,,
	08/18/2022 12:33:25.674,1.20483e+06,3961.58,70.00,6.00,-0.001060029,2.499995,-0.00265007,0.001180309,0.00116635,0.003861664,0.003387982,4008.423,3961.093,0,98.81733,,
	08/18/2022 16:55:41.944,1.22056e+06,3895.28,72.00,6.00,-0.001060066,2.499997,-0.00265016,0.001160398,0.001146842,0.003797316,0.003330954,3940.604,3894.764,0,98.83174,,
	08/18/2022 21:14:07.398,1.23607e+06,3837.65,74.00,6.00,-0.001059963,2.499997,-0.0026499,0.001143441,0.001129829,0.003741991,0.003281554,3883.148,3837.149,0,98.80952,,
	08/19/2022 01:28:03.902,1.25131e+06,3770.89,76.00,6.00,-0.001059894,2.499997,-0.00264973,0.001122929,0.001110088,0.003675692,0.003223324,3814.16,3770.396,0,98.85645,,
	08/19/2022 05:38:01.616,1.2663e+06,3713.1,78.00,6.00,-0.001059839,2.499997,-0.00264959,0.001105889,0.001093037,0.0036204,0.003173697,3756.181,3712.616,0,98.83779,,
	08/19/2022 09:44:10.101,1.28107e+06,3658.42,80.00,6.00,-0.001059894,2.499997,-0.00264973,0.00108904,0.001076953,0.003565764,0.003126672,3699.003,3657.947,0,98.89016,,
	08/19/2022 13:47:16.691,1.29566e+06,3618.32,82.00,6.00,-0.00106005,2.499999,-0.00265012,0.00107685,0.001065324,0.003525514,0.0030942,3657.029,3617.844,0,98.92966,,
	08/19/2022 17:47:27.654,1.31007e+06,3569,84.00,6.00,-0.001060047,2.49999,-0.00265011,0.001062883,0.001050752,0.003479662,0.003051594,3609.508,3568.541,0,98.85864,,
	08/19/2022 21:44:02.016,1.32426e+06,3516.08,86.00,6.00,-0.001059963,2.499999,-0.00264991,0.001046874,0.001035141,0.003427834,0.003005861,3555.151,3515.636,0,98.87922,,
	08/20/2022 01:37:06.460,1.33825e+06,3464.55,88.00,6.00,-0.001060017,2.499984,-0.00265003,0.001031332,0.001019988,0.003377498,0.002961505,3502.239,3464.112,0,98.90009,,
	08/20/2022 05:27:03.883,1.35205e+06,3419.82,90.00,6.00,-0.001059988,2.499995,-0.00264996,0.001017558,0.001006794,0.003332636,0.002923044,3455.449,3419.398,0,98.94222,,
	08/20/2022 09:14:05.251,1.36567e+06,3378.22,92.00,6.00,-0.001060061,2.499982,-0.00265013,0.001004462,0.0009946031,0.0032899,0.002887666,3411.177,3377.772,0,99.01846,,
	08/20/2022 12:58:18.658,1.37912e+06,3333.83,94.00,6.00,-0.001059989,2.499997,-0.00264997,0.0009918781,0.000981506,0.003248859,0.002849521,3368.435,3333.397,0,98.95429,,
	08/20/2022 16:39:20.675,1.39238e+06,3287.46,96.00,6.00,-0.001060047,2.499999,-0.00265012,0.0009779936,0.0009679021,0.00320388,0.002809702,3321.115,3287.055,0,98.96814,,
	08/20/2022 20:17:37.560,1.40548e+06,3246.61,98.00,6.00,-0.001060017,2.499995,-0.00265004,0.0009659089,0.0009558566,0.003164419,0.002774516,3280.101,3246.204,0,98.9593,,
	08/20/2022 23:53:17.257,1.41842e+06,3208.36,100.00,6.00,-0.001060025,2.499986,-0.00265005,0.0009544111,0.000944562,0.003126819,0.002741872,3241.134,3207.94,0,98.96806,,
	08/21/2022 03:26:06.799,1.43119e+06,3164.95,102.00,6.00,-0.001059892,2.499976,-0.0026497,0.0009414894,0.0009317104,0.003084882,0.002703912,3197.604,3164.526,0,98.96132,,
	08/21/2022 06:56:06.459,1.44379e+06,3124.24,104.00,6.00,-0.001059859,2.499986,-0.00264963,0.000928935,0.0009197464,0.003044114,0.002668982,3155.201,3123.857,0,99.01085,,
	08/21/2022 10:23:40.128,1.45624e+06,3089.04,106.00,6.00,-0.00105995,2.499991,-0.00264987,0.0009185076,0.0009093927,0.003010081,0.002638835,3119.802,3088.64,0,99.00764,,
	08/21/2022 13:48:57.923,1.46856e+06,3055.92,108.00,6.00,-0.001060057,2.49999,-0.00265013,0.0009088119,0.0008997155,0.002978329,0.002611018,3086.292,3055.518,0,98.99908,,
	08/21/2022 17:12:01.139,1.48074e+06,3022.87,110.00,6.00,-0.001059969,2.499999,-0.00264992,0.0008984894,0.0008899436,0.002944647,0.00258235,3051.116,3022.503,0,99.04887,,
	08/21/2022 20:32:40.958,1.49278e+06,2985.52,112.00,6.00,-0.001059921,2.49999,-0.00264979,0.0008878931,0.0008788984,0.002910186,0.002549899,3015.329,2985.151,0,98.98695,,
	08/21/2022 23:50:56.207,1.50468e+06,2951.35,114.00,6.00,-0.001060143,2.49999,-0.00265035,0.0008770936,0.0008688036,0.00287505,0.002520412,2979.122,2950.952,0,99.05483,,
	08/22/2022 03:06:54.864,1.51644e+06,2916.34,116.00,6.00,-0.001059876,2.499978,-0.00264967,0.000866972,0.0008585391,0.002842083,0.002490336,2944.655,2915.976,0,99.02731,,
	08/22/2022 06:20:29.467,1.52805e+06,2880.82,118.00,6.00,-0.001060155,2.499999,-0.00265039,0.0008563478,0.0008481471,0.002807694,0.002459642,2908.542,2880.463,0,99.04237,,
	08/22/2022 09:31:59.793,1.53954e+06,2852.06,120.00,6.00,-0.001059876,2.499999,-0.00264969,0.00084762,0.0008395976,0.002779175,0.002434953,2878.95,2851.671,0,99.05354,,
	08/22/2022 12:41:58.510,1.55094e+06,2834.39,122.00,6.00,-0.00106005,2.499993,-0.00265012,0.0008415144,0.0008344944,0.002758896,0.002420859,2857.717,2834.017,0,99.16579,,
	08/22/2022 15:50:34.576,1.56226e+06,2808.96,124.00,6.00,-0.00106001,2.499995,-0.00265002,0.0008347646,0.0008269972,0.002736586,0.002399152,2834.955,2808.604,0,99.06952,,
	08/22/2022 18:56:55.542,1.57344e+06,2773.95,126.00,6.00,-0.001060005,2.499993,-0.00265001,0.0008242604,0.0008166848,0.002702549,0.002368693,2799.126,2773.579,0,99.08092,,
	08/22/2022 22:01:19.856,1.5845e+06,2746.75,128.00,6.00,-0.001060008,2.499995,-0.00265001,0.0008161613,0.0008086967,0.002676087,0.00234544,2771.639,2746.419,0,99.08541,,
	08/23/2022 01:03:56.419,1.59546e+06,2719.09,130.00,6.00,-0.001060048,2.499988,-0.00265011,0.0008081213,0.0008005181,0.002649805,0.002321559,2744.31,2718.75,0,99.05914,,
	08/23/2022 04:04:34.686,1.6063e+06,2690.36,132.00,6.00,-0.00105994,2.499988,-0.00264984,0.0007991964,0.000792035,0.002620824,0.002296588,2713.938,2690.006,0,99.10392,,
	08/23/2022 07:03:18.181,1.61702e+06,2661.98,134.00,6.00,-0.001059922,2.499986,-0.00264979,0.0007906436,0.0007836507,0.002593047,0.002271854,2685.337,2661.647,0,99.11555,,
	08/23/2022 10:00:14.748,1.62764e+06,2637.35,136.00,6.00,-0.00106007,2.499991,-0.00265017,0.0007828067,0.0007764634,0.00256747,0.002250916,2658.287,2636.998,0,99.18967,,
	08/23/2022 12:56:06.011,1.63819e+06,2621.72,138.00,6.00,-0.001060041,2.499993,-0.0026501,0.0007785875,0.0007719017,0.002553343,0.002238259,2644.099,2621.389,0,99.14129,,
	08/23/2022 15:50:11.329,1.64863e+06,2592.18,140.00,6.00,-0.001060008,2.49998,-0.00265,0.0007702362,0.0007631768,0.002526189,0.002212497,2615.749,2591.839,0,99.08348,,
	08/23/2022 18:42:25.204,1.65897e+06,2566.5,142.00,6.00,-0.001060052,2.499997,-0.00265013,0.0007621889,0.0007556177,0.002500054,0.002190262,2588.386,2566.166,0,99.13786,,
	08/23/2022 21:33:00.915,1.6692e+06,2542.45,144.00,6.00,-0.001059962,2.499995,-0.0026499,0.0007548648,0.0007485091,0.002476105,0.002169386,2563.395,2542.126,0,99.15805,,
	08/24/2022 00:21:52.158,1.67933e+06,2515.35,146.00,6.00,-0.001059915,2.49999,-0.00264978,0.0007466903,0.0007404803,0.002449571,0.002145562,2536.206,2515.011,0,99.16834,,
	08/24/2022 03:08:59.613,1.68936e+06,2489.47,148.00,6.00,-0.001059913,2.499999,-0.00264978,0.0007392518,0.0007328531,0.002425444,0.002123123,2510.948,2489.173,0,99.13443,,
	08/24/2022 05:54:29.729,1.69929e+06,2466.34,150.00,6.00,-0.001059921,2.499978,-0.00264978,0.000732172,0.000726043,0.00240239,0.002103137,2486.88,2466.025,0,99.1629,,
	08/24/2022 08:38:31.190,1.70913e+06,2445.56,152.00,6.00,-0.001059921,2.499991,-0.00264979,0.0007256187,0.0007199349,0.002381042,0.002085341,2464.627,2445.256,0,99.21668,,
	08/24/2022 11:21:19.440,1.7189e+06,2428.04,154.00,6.00,-0.001060089,2.499999,-0.00265022,0.0007204397,0.0007148584,0.002364042,0.002070663,2446.662,2427.746,0,99.2253,,
	08/24/2022 14:03:19.327,1.72862e+06,2417.32,156.00,6.00,-0.001060122,2.499997,-0.0026503,0.0007173298,0.0007117465,0.002353539,0.002062149,2436.146,2417.02,0,99.22166,,
	08/24/2022 16:44:15.156,1.73828e+06,2398.09,158.00,6.00,-0.001060043,2.499999,-0.00265011,0.0007122253,0.0007060672,0.002336758,0.002045692,2418.847,2397.767,0,99.13537,,
	08/24/2022 19:23:39.550,1.74784e+06,2374.69,160.00,6.00,-0.001060053,2.499995,-0.00265013,0.0007052827,0.0006991581,0.002314169,0.00202529,2395.129,2374.391,0,99.13161,,
	08/24/2022 22:01:29.780,1.75731e+06,2351.58,162.00,6.00,-0.001059917,2.499993,-0.00264979,0.0006981653,0.0006922823,0.002291037,0.002004873,2371.155,2351.28,0,99.15736,,
	08/25/2022 00:37:42.866,1.76669e+06,2328.16,164.00,6.00,-0.001059938,2.499997,-0.00264984,0.0006908178,0.0006853793,0.002267194,0.001984464,2346.43,2327.893,0,99.21275,,
	08/25/2022 03:12:30.515,1.77597e+06,2307.45,166.00,6.00,-0.001059941,2.49997,-0.00264982,0.0006847308,0.0006792705,0.00224736,0.001966547,2325.791,2307.159,0,99.20255,,
	08/25/2022 05:46:01.065,1.78518e+06,2289.62,168.00,6.00,-0.001059873,2.499995,-0.00264968,0.0006790775,0.0006740123,0.002228925,0.001951098,2306.501,2289.338,0,99.25411,,
	08/25/2022 08:18:20.921,1.79432e+06,2271.99,170.00,6.00,-0.001059968,2.499999,-0.00264992,0.0006739002,0.0006688469,0.002212002,0.00193618,2288.721,2271.676,0,99.25015,,
	08/25/2022 10:49:34.811,1.8034e+06,2256.25,172.00,6.00,-0.001060024,2.49999,-0.00265005,0.0006692454,0.0006642695,0.002196735,0.001922938,2272.66,2255.955,0,99.25649,,
	08/25/2022 13:20:08.425,1.81243e+06,2249,174.00,6.00,-0.001060078,2.499993,-0.00265019,0.000667067,0.0006621674,0.002189275,0.001917452,2265.435,2248.709,0,99.2655,,
	08/25/2022 15:49:51.996,1.82141e+06,2233.9,176.00,6.00,-0.001060089,2.499997,-0.00265022,0.0006629856,0.0006577073,0.002175834,0.001904503,2251.573,2233.604,0,99.20386,,
	08/25/2022 18:18:17.711,1.83032e+06,2211.87,178.00,6.00,-0.001060069,2.499993,-0.00265017,0.0006564488,0.0006512276,0.002154595,0.00188526,2229.315,2211.585,0,99.20464,,
	08/25/2022 20:45:20.127,1.83914e+06,2191.94,180.00,6.00,-0.001060025,2.499999,-0.00265006,0.0006503113,0.0006453134,0.002134612,0.001867742,2208.344,2191.656,0,99.23146,,
	08/25/2022 23:11:02.529,1.84789e+06,2171.71,182.00,6.00,-0.001059945,2.499997,-0.00264986,0.0006446237,0.0006393293,0.002116147,0.001850099,2189.044,2171.414,0,99.17868,,
	08/26/2022 01:35:29.591,1.85655e+06,2153.96,184.00,6.00,-0.001060003,2.499999,-0.00265001,0.0006391365,0.0006341194,0.002098257,0.001834781,2170.764,2153.693,0,99.21502,,
	08/26/2022 03:58:47.028,1.86515e+06,2136.62,186.00,6.00,-0.001059936,2.499986,-0.00264983,0.0006337977,0.0006289958,0.002080858,0.001819617,2152.788,2136.367,0,99.24236,,
	08/26/2022 06:20:54.344,1.87368e+06,2119.89,188.00,6.00,-0.001059932,2.499995,-0.00264982,0.0006287472,0.0006240599,0.002064456,0.001805227,2135.597,2119.624,0,99.2545,,
	08/26/2022 08:42:06.193,1.88215e+06,2106.09,190.00,6.00,-0.001059949,2.49999,-0.00264986,0.0006248477,0.0006200246,0.00205161,0.001793521,2122.087,2105.831,0,99.22811,,
	08/26/2022 11:02:23.313,1.89057e+06,2093.51,192.00,6.00,-0.001059996,2.499997,-0.00264999,0.0006208397,0.0006163339,0.002038457,0.001782811,2108.36,2093.247,0,99.27423,,
	08/26/2022 13:21:56.556,1.89894e+06,2083.86,194.00,6.00,-0.00106002,2.499999,-0.00265005,0.0006177389,0.000613547,0.002028205,0.001774873,2097.823,2083.619,0,99.32142,,
	08/26/2022 15:40:55.137,1.90728e+06,2074.02,196.00,6.00,-0.001060092,2.499978,-0.00265021,0.000615361,0.000610655,0.002020261,0.001766656,2089.826,2073.78,0,99.23524,,
	08/26/2022 17:58:58.787,1.91556e+06,2058.77,198.00,6.00,-0.001060048,2.499991,-0.00265011,0.0006108344,0.0006061361,0.00200548,0.001753368,2074.313,2058.497,0,99.23084,,
	08/26/2022 20:15:52.340,1.92377e+06,2042.47,200.00,6.00,-0.001059949,2.499969,-0.00264984,0.0006055341,0.0006013216,0.001988266,0.001739145,2056.399,2042.216,0,99.30434,,
	08/26/2022 22:31:38.392,1.93192e+06,2023.96,202.00,6.00,-0.001059949,2.499988,-0.00264986,0.0006004422,0.0005958417,0.001971718,0.001722916,2039.224,2023.704,0,99.23383,,
	08/27/2022 00:46:15.510,1.94e+06,2008.38,204.00,6.00,-0.001059871,2.49999,-0.00264967,0.0005954552,0.0005912227,0.001955485,0.00170925,2022.512,2008.124,0,99.2892,,
	08/27/2022 02:59:55.668,1.94802e+06,1994.65,206.00,6.00,-0.001059935,2.499993,-0.00264983,0.0005913815,0.0005871789,0.00194218,0.001697389,2008.681,1994.384,0,99.28934,,
	08/27/2022 05:12:43.665,1.95599e+06,1980.85,208.00,6.00,-0.001059896,2.499997,-0.00264974,0.0005875603,0.0005831081,0.001929687,0.00168546,1995.639,1980.59,0,99.24226,,
	08/27/2022 07:24:29.585,1.96389e+06,1965.4,210.00,6.00,-0.001059878,2.499982,-0.00264968,0.0005829076,0.0005785586,0.001914593,0.001672027,1979.839,1965.155,0,99.25391,,
	08/27/2022 09:35:24.329,1.97175e+06,1954.05,212.00,6.00,-0.001059824,2.499997,-0.00264956,0.0005793418,0.0005752129,0.001902885,0.001662349,1967.722,1953.803,0,99.28732,,
	08/27/2022 11:45:38.145,1.97956e+06,1944.6,214.00,6.00,-0.001059975,2.499982,-0.00264992,0.000576368,0.0005724866,0.001893103,0.001654547,1957.577,1944.354,0,99.32658,,
	08/27/2022 13:55:17.590,1.98734e+06,1935.93,216.00,6.00,-0.001060017,2.499972,-0.00265001,0.0005741413,0.0005699705,0.001885679,0.00164741,1949.736,1935.7,0,99.27357,,
	08/27/2022 16:04:09.034,1.99507e+06,1922.97,218.00,6.00,-0.001060053,2.499991,-0.00265012,0.0005701446,0.0005661594,0.001872645,0.001636199,1936.192,1922.719,0,99.30103,,
	08/27/2022 18:12:11.909,2.00275e+06,1911.39,220.00,6.00,-0.001060016,2.499986,-0.00265003,0.0005665443,0.0005627453,0.001860849,0.001626222,1923.97,1911.148,0,99.32945,,
	08/27/2022 20:19:27.098,2.01039e+06,1899.2,222.00,6.00,-0.001059946,2.499995,-0.00264986,0.0005629645,0.0005591234,0.001849141,0.001615563,1911.706,1898.958,0,99.31771,,
	08/27/2022 22:25:48.997,2.01797e+06,1885.36,224.00,6.00,-0.001059898,2.499986,-0.00264973,0.0005590006,0.0005550167,0.001836232,0.001603473,1898.465,1885.114,0,99.28731,,
	08/28/2022 00:31:19.618,2.0255e+06,1872.93,226.00,6.00,-0.001059894,2.499988,-0.00264972,0.0005551747,0.00055135,0.001823757,0.001592707,1885.671,1872.694,0,99.31109,,
	08/28/2022 02:35:57.851,2.03298e+06,1859.49,228.00,6.00,-0.001059856,2.49999,-0.00264963,0.0005512546,0.0005474006,0.001810978,0.001581035,1872.365,1859.261,0,99.30087,,
	08/28/2022 04:39:42.615,2.04041e+06,1846.16,230.00,6.00,-0.001059896,2.499972,-0.00264971,0.0005474712,0.0005434615,0.001798679,0.001569459,1859.513,1845.945,0,99.26761,,
	08/28/2022 06:42:37.546,2.04778e+06,1834.53,232.00,6.00,-0.001059899,2.499993,-0.00264974,0.0005437532,0.0005400475,0.001786509,0.001559462,1846.847,1834.29,0,99.3185,,
	08/28/2022 08:44:53.324,2.05512e+06,1826.21,234.00,6.00,-0.001059904,2.499999,-0.00264976,0.0005410765,0.000537605,0.001777732,0.001552418,1837.785,1826.001,0,99.35839,,
	08/28/2022 10:46:33.340,2.06242e+06,1816.25,236.00,6.00,-0.001059959,2.499986,-0.00264988,0.0005383556,0.0005346838,0.001768794,0.001543935,1828.582,1816.001,0,99.31796,,
	08/28/2022 12:47:38.958,2.06968e+06,1809.1,238.00,6.00,-0.001060055,2.499995,-0.00265013,0.000535921,0.0005326177,0.001760786,0.001537986,1819.898,1808.868,0,99.38362,,
	08/28/2022 14:48:17.419,2.07692e+06,1801.17,240.00,6.00,-0.001060001,2.499999,-0.00265,0.0005340258,0.0005303004,0.001754513,0.001531391,1813.522,1800.951,0,99.30241,,
	08/28/2022 16:48:16.040,2.08412e+06,1790.53,242.00,6.00,-0.001060027,2.499991,-0.00265006,0.000530881,0.0005271637,0.001744223,0.001522153,1802.83,1790.299,0,99.2998,,
	08/28/2022 18:47:33.277,2.09128e+06,1780.5,244.00,6.00,-0.001059957,2.499991,-0.00264988,0.000527899,0.0005242045,0.001734453,0.001513526,1792.657,1780.282,0,99.30014,,
	08/28/2022 20:46:08.303,2.09839e+06,1769.72,246.00,6.00,-0.001059977,2.499995,-0.00264994,0.0005246808,0.0005210105,0.001723939,0.001504112,1781.796,1769.51,0,99.30046,,
	08/28/2022 22:43:59.855,2.10546e+06,1759.3,248.00,6.00,-0.00105994,2.499995,-0.00264984,0.0005213744,0.0005179141,0.001713135,0.001495042,1770.895,1759.081,0,99.33632,,
	08/29/2022 00:41:09.870,2.11249e+06,1748.76,250.00,6.00,-0.001059901,2.499986,-0.00264974,0.000518403,0.0005148156,0.001703426,0.001485973,1760.802,1748.53,0,99.30799,,
	08/29/2022 02:37:33.081,2.11948e+06,1737.17,252.00,6.00,-0.001059901,2.499997,-0.00264975,0.0005147167,0.0005113836,0.001691421,0.001475832,1748.292,1736.936,0,99.35246,,
	08/29/2022 04:33:12.140,2.12641e+06,1726.04,254.00,6.00,-0.001059915,2.499986,-0.00264977,0.0005116896,0.0005081099,0.001681578,0.001466193,1737.983,1725.822,0,99.30041,,
	08/29/2022 06:28:09.125,2.13331e+06,1716.06,256.00,6.00,-0.001059901,2.499986,-0.00264974,0.0005085531,0.0005051865,0.001671308,0.00145767,1727.329,1715.855,0,99.33801,,
	08/29/2022 08:22:32.330,2.14017e+06,1708.36,258.00,6.00,-0.001059936,2.499993,-0.00264983,0.0005062411,0.0005029276,0.001663739,0.00145109,1719.496,1708.152,0,99.34547,,
	08/29/2022 10:16:25.664,2.14701e+06,1700.93,260.00,6.00,-0.001059955,2.499991,-0.00264988,0.0005040226,0.0005007465,0.001656413,0.001444822,1711.794,1700.728,0,99.35001,,
	08/29/2022 12:09:50.264,2.15381e+06,1693.92,262.00,6.00,-0.001060025,2.499995,-0.00265006,0.0005019854,0.0004987209,0.001649707,0.001438986,1704.662,1693.71,0,99.34969,,
	08/29/2022 14:02:52.571,2.1606e+06,1689.67,264.00,6.00,-0.001060043,2.499995,-0.0026501,0.0005005579,0.0004974788,0.001644987,0.001435579,1699.928,1689.463,0,99.38485,,
	08/29/2022 15:55:34.570,2.16736e+06,1682.66,266.00,6.00,-0.001060095,2.499976,-0.00265021,0.0004988401,0.0004954353,0.001639216,0.001429659,1694.13,1682.443,0,99.31744,,
	08/29/2022 17:47:38.900,2.17408e+06,1673.34,268.00,6.00,-0.001060081,2.499993,-0.0026502,0.000495755,0.0004926792,0.001629148,0.00142153,1683.597,1673.127,0,99.37959,,
	08/29/2022 19:39:04.360,2.18077e+06,1662.86,270.00,6.00,-0.00106005,2.499999,-0.00265012,0.0004928991,0.0004895735,0.001619844,0.001412393,1673.901,1662.645,0,99.32529,,
	08/29/2022 21:29:46.327,2.18741e+06,1652,272.00,6.00,-0.001059932,2.499991,-0.00264982,0.0004898018,0.0004863479,0.001609749,0.00140285,1663.447,1651.793,0,99.29484,,
	08/29/2022 23:19:45.955,2.19401e+06,1641.81,274.00,6.00,-0.001059906,2.499997,-0.00264976,0.0004866583,0.0004833402,0.00159948,0.001394028,1652.969,1641.614,0,99.3182,,
	08/30/2022 01:09:09.786,2.20057e+06,1633.09,276.00,6.00,-0.001059936,2.499982,-0.00264982,0.0004840259,0.0004807652,0.00159086,0.001386486,1644.056,1632.895,0,99.32634,,
	08/30/2022 02:57:53.445,2.2071e+06,1623.06,278.00,6.00,-0.001059955,2.499995,-0.00264988,0.0004809767,0.0004778082,0.001580936,0.0013778,1633.691,1622.859,0,99.34123,,
	08/30/2022 17:31:53.929,2.21354e+06,1615.66,280.00,6.00,-0.001060043,2.499986,-0.00265009,0.0004661587,0.0004756521,0.001530471,0.001369213,336.7305,1615.318,0,102.0365,,
	08/30/2022 19:19:07.041,2.21997e+06,1600.25,282.00,6.00,-0.001060011,2.499986,-0.00265001,0.0004738365,0.0004711115,0.001557097,0.001357773,1609.139,1599.927,0,99.4249,,
	08/30/2022 21:05:39.962,2.22637e+06,1591.36,284.00,6.00,-0.001059975,2.499997,-0.00264993,0.0004712873,0.0004684727,0.001548916,0.0013502,1600.735,1591.035,0,99.40279,,
	08/30/2022 22:51:38.364,2.23273e+06,1582.36,286.00,6.00,-0.001059931,2.499984,-0.00264981,0.0004687445,0.0004657941,0.001540645,0.001342418,1592.157,1582.023,0,99.37059,,
	08/31/2022 00:36:58.705,2.23905e+06,1572.92,288.00,6.00,-0.001059913,2.499999,-0.00264978,0.0004659121,0.0004630015,0.001531455,0.001334216,1582.514,1572.589,0,99.3753,,
	08/31/2022 02:21:42.848,2.24533e+06,1563.87,290.00,6.00,-0.001059935,2.499999,-0.00264984,0.0004632589,0.0004603348,0.001522806,0.001326451,1573.49,1563.546,0,99.3688,,
	08/31/2022 04:05:53.603,2.25158e+06,1555.78,292.00,6.00,-0.001059833,2.49999,-0.00264957,0.000460864,0.0004579399,0.00151501,0.001319447,1565.268,1555.458,0,99.36552,,
	08/31/2022 05:49:32.294,2.2578e+06,1547.66,294.00,6.00,-0.00105989,2.499995,-0.00264972,0.0004584976,0.0004555625,0.001507278,0.001312538,1557.303,1547.337,0,99.35983,,
	08/31/2022 07:32:40.693,2.26399e+06,1540.8,296.00,6.00,-0.00105989,2.499991,-0.00264972,0.0004563057,0.000453548,0.001500105,0.00130666,1549.868,1540.489,0,99.39567,,
	08/31/2022 09:15:23.404,2.27015e+06,1534.59,298.00,6.00,-0.001059884,2.499993,-0.0026497,0.000454448,0.0004517135,0.001493988,0.001301339,1543.547,1534.28,0,99.39828,,
	08/31/2022 10:57:46.754,2.27629e+06,1530.44,300.00,6.00,-0.001060027,2.499999,-0.00265007,0.0004531839,0.0004505219,0.001489812,0.001297991,1539.308,1530.125,0,99.41261,,
	08/31/2022 12:39:54.422,2.28242e+06,1527.02,302.00,6.00,-0.001060029,2.499986,-0.00265006,0.0004520869,0.0004495364,0.001486157,0.001295301,1535.239,1526.693,0,99.43584,,
	08/31/2022 14:21:55.408,2.28854e+06,1524.64,304.00,6.00,-0.001060078,2.49999,-0.00265018,0.0004516028,0.0004488539,0.001484416,0.001293442,1533.586,1524.329,0,99.3913,,
	08/31/2022 16:03:35.431,2.29464e+06,1519.07,306.00,6.00,-0.001060066,2.499993,-0.00265016,0.0004499507,0.0004472202,0.001478989,0.001288733,1528.05,1518.767,0,99.39316,,
	08/31/2022 17:44:51.494,2.30072e+06,1512.16,308.00,6.00,-0.001060045,2.499984,-0.0026501,0.0004480676,0.0004451918,0.001472798,0.001282786,1521.641,1511.853,0,99.35816,,
	08/31/2022 19:25:38.524,2.30677e+06,1504.94,310.00,6.00,-0.001060076,2.499991,-0.00265018,0.0004458703,0.0004430613,0.001465616,0.001276546,1514.216,1504.618,0,99.37001,,
	08/31/2022 21:05:57.718,2.31279e+06,1498.6,312.00,6.00,-0.001060097,2.499991,-0.00265023,0.0004438835,0.0004411932,0.001459089,0.001271097,1507.446,1498.277,0,99.39391,,
	08/31/2022 22:45:50.305,2.31878e+06,1491.59,314.00,6.00,-0.001060098,2.499997,-0.00265024,0.0004419438,0.0004391361,0.001452725,0.001265092,1500.863,1491.268,0,99.36468,,
	09/01/2022 00:25:16.585,2.32474e+06,1485.06,316.00,6.00,-0.001060078,2.499997,-0.00265019,0.0004400596,0.0004372022,0.001446546,0.001259486,1494.459,1484.73,0,99.35069,,
	09/01/2022 02:04:14.355,2.33068e+06,1478.13,318.00,6.00,-0.001060015,2.499978,-0.00265001,0.000437897,0.0004351642,0.001439485,0.001253482,1487.078,1477.836,0,99.37594,,
	09/01/2022 03:42:45.648,2.33659e+06,1471.35,320.00,6.00,-0.001060039,2.49999,-0.00265009,0.0004360013,0.0004331688,0.001433258,0.001247647,1480.645,1471.056,0,99.35035,,
	09/01/2022 05:20:49.910,2.34248e+06,1464.55,322.00,6.00,-0.001060076,2.499995,-0.00265018,0.0004339882,0.0004311558,0.001426672,0.001241788,1473.786,1464.258,0,99.34736,,
	09/01/2022 06:58:25.628,2.34833e+06,1457.14,324.00,6.00,-0.001059983,2.499999,-0.00264996,0.0004318141,0.0004289637,0.001419562,0.001235331,1466.375,1456.837,0,99.3399,,
	09/01/2022 08:35:30.859,2.35416e+06,1450.13,326.00,6.00,-0.001060071,2.499997,-0.00265017,0.0004294987,0.0004269129,0.001412008,0.001229306,1458.555,1449.826,0,99.39794,,
	09/01/2022 10:12:25.978,2.35997e+06,1449.15,328.00,6.00,-0.00106007,2.499999,-0.00265017,0.0004291997,0.0004266252,0.001410914,0.001228694,1457.618,1448.839,0,99.40016,,
	09/01/2022 11:48:57.975,2.36577e+06,1440.48,330.00,6.00,-0.001059985,2.499999,-0.00264996,0.0004269812,0.0004240552,0.001403648,0.001221091,1450.007,1440.193,0,99.31474,,
	09/01/2022 13:24:49.650,2.37152e+06,1431.46,332.00,6.00,-0.001059906,2.499986,-0.00264975,0.0004239717,0.00042137,0.00139388,0.001213155,1439.73,1431.172,0,99.38636,,
	09/01/2022 15:00:10.337,2.37724e+06,1423.93,334.00,6.00,-0.001059857,2.499999,-0.00264964,0.0004216752,0.0004191367,0.001386381,0.001206602,1432.276,1423.623,0,99.39798,,
	09/01/2022 16:35:02.067,2.38293e+06,1416.56,336.00,6.00,-0.001059868,2.499997,-0.00264967,0.0004196512,0.0004169705,0.001379768,0.001200255,1425.363,1416.26,0,99.36121,,
	09/01/2022 18:09:25.663,2.38859e+06,1409.57,338.00,6.00,-0.001059945,2.499995,-0.00264986,0.0004175885,0.0004149225,0.001373013,0.001194243,1418.406,1409.277,0,99.36156,,
	09/01/2022 19:43:18.940,2.39423e+06,1402.11,340.00,6.00,-0.001059973,2.499993,-0.00264993,0.0004152412,0.0004127395,0.001365368,0.001187814,1410.403,1401.833,0,99.39752,,
	09/01/2022 21:16:51.952,2.39984e+06,1398.34,342.00,6.00,-0.001059996,2.499997,-0.00264999,0.000413993,0.0004116535,0.001361239,0.001184735,1405.835,1398.053,0,99.43491,,
	09/01/2022 22:50:13.637,2.40544e+06,1395.32,344.00,6.00,-0.001060076,2.499986,-0.00265018,0.0004132347,0.000410787,0.001358691,0.001182298,1403.327,1395.045,0,99.40767,,
	09/02/2022 00:23:19.402,2.41103e+06,1391.13,346.00,6.00,-0.001060043,2.499995,-0.0026501,0.0004120474,0.0004095565,0.001354786,0.001178729,1399.322,1390.857,0,99.39548,,
	09/02/2022 01:56:02.633,2.41659e+06,1384.91,348.00,6.00,-0.001059969,2.499993,-0.00264992,0.0004102277,0.0004077006,0.001348797,0.001173328,1393.095,1384.633,0,99.38399,,
	09/02/2022 03:28:15.937,2.42212e+06,1376.23,350.00,6.00,-0.001059943,2.499988,-0.00264984,0.0004078464,0.0004051074,0.001341018,0.00116564,1385.303,1375.95,0,99.32844,,
	09/02/2022 04:59:54.933,2.42762e+06,1368.4,352.00,6.00,-0.001059878,2.499999,-0.00264969,0.0004054155,0.0004028048,0.001333106,0.001158875,1377.049,1368.139,0,99.35604,,
	09/02/2022 06:31:07.470,2.43309e+06,1362.43,354.00,6.00,-0.001059922,2.499999,-0.0026498,0.0004034762,0.0004010389,0.001326763,0.001153687,1370.428,1362.15,0,99.39591,,
	09/02/2022 08:01:57.154,2.43854e+06,1357.09,356.00,6.00,-0.001059884,2.499991,-0.0026497,0.0004017951,0.0003994605,0.001321279,0.001149099,1364.708,1356.815,0,99.41898,,
	09/02/2022 09:32:25.880,2.44397e+06,1351.85,358.00,6.00,-0.001059885,2.499986,-0.0026497,0.0004002105,0.0003979212,0.001316082,0.001144634,1359.348,1351.569,0,99.42797,,
	09/02/2022 11:02:35.726,2.44938e+06,1347.12,360.00,6.00,-0.001059975,2.499997,-0.00264993,0.0003989369,0.0003965606,0.001311883,0.001140729,1354.822,1346.839,0,99.40435,,
	09/02/2022 12:32:33.083,2.45478e+06,1345.39,362.00,6.00,-0.001060069,2.499978,-0.00265015,0.0003982549,0.00039609,0.001309604,0.001139449,1352.468,1345.126,0,99.45641,,
	09/02/2022 14:02:25.739,2.46017e+06,1343.85,364.00,6.00,-0.001060033,2.499993,-0.00265008,0.0003978679,0.0003956371,0.00130825,0.001138258,1351.192,1343.597,0,99.43932,,
	09/02/2022 15:32:07.406,2.46555e+06,1341.05,366.00,6.00,-0.00106009,2.499999,-0.00265022,0.0003970055,0.0003948198,0.001305409,0.001135938,1348.299,1340.792,0,99.44946,,
	09/02/2022 17:01:31.365,2.47092e+06,1334.44,368.00,6.00,-0.001060043,2.499995,-0.0026501,0.0003954855,0.0003928606,0.001300402,0.001130177,1343.094,1334.184,0,99.3363,,
	09/02/2022 18:30:23.792,2.47625e+06,1327.51,370.00,6.00,-0.001059982,2.499993,-0.00264995,0.0003932137,0.0003908092,0.001292997,0.001124137,1335.395,1327.25,0,99.3885,,
	09/02/2022 19:58:47.484,2.48155e+06,1320.79,372.00,6.00,-0.001060029,2.499997,-0.00265007,0.0003909388,0.0003888363,0.001285563,0.001118328,1327.57,1320.533,0,99.46219,,
	09/02/2022 21:26:54.496,2.48684e+06,1316.79,374.00,6.00,-0.001060025,2.499991,-0.00265005,0.0003899584,0.0003876605,0.001282313,0.001114964,1324.293,1316.53,0,99.41076,,
	09/02/2022 22:54:38.495,2.49211e+06,1309.97,376.00,6.00,-0.001060025,2.49998,-0.00265004,0.0003881103,0.0003856466,0.001276264,0.001109072,1318.017,1309.708,0,99.3652,,
	09/03/2022 00:21:59.126,2.49735e+06,1305.5,378.00,6.00,-0.001060031,2.499999,-0.00265008,0.0003866183,0.0003843389,0.001271395,0.001105245,1312.962,1305.244,0,99.41042,,
	09/03/2022 01:48:57.952,2.50257e+06,1298.82,380.00,6.00,-0.00106005,2.499993,-0.00265012,0.0003846971,0.0003823663,0.001265083,0.001099495,1306.418,1298.577,0,99.39412,,
	09/03/2022 03:15:33.748,2.50776e+06,1293.89,382.00,6.00,-0.001060019,2.499986,-0.00265003,0.0003831144,0.0003809023,0.001259892,0.001095206,1300.973,1293.636,0,99.4226,,
	09/03/2022 04:41:50.328,2.51294e+06,1289.15,384.00,6.00,-0.001060059,2.499978,-0.00265012,0.0003817863,0.0003795223,0.001255556,0.001091199,1296.481,1288.889,0,99.407,,
	09/03/2022 06:07:48.202,2.5181e+06,1284.34,386.00,6.00,-0.001060092,2.499991,-0.00265022,0.0003803447,0.0003781091,0.001250814,0.001087116,1291.635,1284.077,0,99.4122,,
	09/03/2022 07:33:28.038,2.52324e+06,1280.46,388.00,6.00,-0.001060092,2.499999,-0.00265023,0.0003790839,0.0003769745,0.001246678,0.0010838,1287.346,1280.199,0,99.44357,,
	09/03/2022 08:58:48.225,2.52836e+06,1275.26,390.00,6.00,-0.001060066,2.499991,-0.00265016,0.0003775355,0.0003754464,0.001241602,0.001079342,1282.155,1275.023,0,99.44665,,
	09/03/2022 10:23:55.357,2.53346e+06,1272.25,392.00,6.00,-0.001060057,2.499993,-0.00265014,0.0003767871,0.0003745565,0.001239106,0.001076825,1279.62,1271.999,0,99.408,,
	09/03/2022 11:48:43.036,2.53855e+06,1266.67,394.00,6.00,-0.00106008,2.499999,-0.0026502,0.0003751454,0.0003728936,0.001233727,0.001071942,1273.99,1266.416,0,99.39976,,
	09/03/2022 13:13:03.107,2.54361e+06,1259.47,396.00,6.00,-0.001059938,2.499997,-0.00264984,0.0003730161,0.0003707506,0.001226792,0.001065622,1266.693,1259.198,0,99.39265,,
	09/03/2022 14:36:58.484,2.54865e+06,1253.52,398.00,6.00,-0.001059932,2.499995,-0.00264982,0.0003712753,0.0003690008,0.001221093,0.001060489,1260.782,1253.279,0,99.38737,,
	09/03/2022 16:00:29.516,2.55366e+06,1247.63,400.00,6.00,-0.001059945,2.49998,-0.00264984,0.0003695107,0.0003672655,0.001215335,0.001055427,1254.771,1247.389,0,99.39239,,
	09/03/2022 17:23:39.004,2.55865e+06,1242.25,402.00,6.00,-0.001059922,2.499984,-0.00264979,0.0003678554,0.0003656753,0.001209923,0.001050762,1249.376,1241.996,0,99.40736,,
	09/03/2022 18:46:29.049,2.56362e+06,1237.58,404.00,6.00,-0.001059864,2.499984,-0.00264964,0.0003664679,0.0003642854,0.001205356,0.001046732,1244.748,1237.341,0,99.40443,,
	09/03/2022 20:08:57.595,2.56856e+06,1232.39,406.00,6.00,-0.00105992,2.499972,-0.00264977,0.0003648766,0.0003627674,0.001200175,0.001042278,1239.357,1232.141,0,99.42194,,
	09/03/2022 21:31:07.037,2.57349e+06,1227.56,408.00,6.00,-0.001059931,2.499991,-0.00264982,0.0003634501,0.0003613576,0.001195479,0.001038191,1234.452,1227.312,0,99.42426,,
	09/03/2022 22:53:01.083,2.57841e+06,1224.05,410.00,6.00,-0.001060024,2.499997,-0.00265006,0.0003624591,0.0003603483,0.001192204,0.001035289,1230.858,1223.804,0,99.41765,,
	09/04/2022 00:14:42.888,2.58331e+06,1221.35,412.00,6.00,-0.001060047,2.499997,-0.00265011,0.000361594,0.0003595588,0.001189337,0.001033034,1227.939,1221.116,0,99.43716,,
	09/04/2022 01:36:15.276,2.5882e+06,1219.05,414.00,6.00,-0.001060048,2.499995,-0.00265011,0.000360974,0.0003588948,0.001187276,0.001031147,1225.879,1218.832,0,99.42399,,
	09/04/2022 02:57:37.996,2.59309e+06,1216.4,416.00,6.00,-0.001060094,2.499997,-0.00265023,0.0003602332,0.0003581198,0.001184807,0.001028926,1223.384,1216.174,0,99.41334,,
	09/04/2022 04:18:52.370,2.59796e+06,1214.39,418.00,6.00,-0.001060057,2.499999,-0.00265014,0.0003596024,0.000357523,0.001182712,0.001027267,1221.241,1214.155,0,99.42176,,
	09/04/2022 05:39:53.103,2.60282e+06,1210.54,420.00,6.00,-0.001060117,2.499991,-0.00265028,0.0003585358,0.0003563905,0.001179205,0.001023985,1217.596,1210.3,0,99.40166,,
	09/04/2022 07:00:39.907,2.60767e+06,1207.4,422.00,6.00,-0.001060083,2.499978,-0.00265018,0.0003574926,0.0003554693,0.001175785,0.001021327,1214.067,1207.162,0,99.43403,,
	09/04/2022 08:21:07.880,2.6125e+06,1200.98,424.00,6.00,-0.001060011,2.499999,-0.00265003,0.0003559454,0.0003535655,0.001170701,0.00101574,1208.779,1200.783,0,99.3314,,
	09/04/2022 09:41:02.685,2.61729e+06,1193.28,426.00,6.00,-0.001059907,2.499991,-0.00264976,0.0003533976,0.0003512774,0.001162403,0.001008941,1200.171,1193.076,0,99.40007,,
	09/04/2022 11:00:32.410,2.62206e+06,1187.38,428.00,6.00,-0.001059908,2.499999,-0.00264977,0.0003516747,0.0003495333,0.001156776,0.001003836,1194.432,1187.187,0,99.39108,,
	09/04/2022 12:19:42.600,2.62681e+06,1182.8,430.00,6.00,-0.001059856,2.499984,-0.00264962,0.0003502752,0.0003481754,0.001152188,0.0009998498,1189.688,1182.603,0,99.40052,,
	09/04/2022 13:38:34.618,2.63154e+06,1178.4,432.00,6.00,-0.001059926,2.499991,-0.00264981,0.0003489254,0.0003468903,0.001147765,0.0009961185,1185.167,1178.21,0,99.41676,,
	09/04/2022 14:57:06.370,2.63625e+06,1172.99,434.00,6.00,-0.001059906,2.499993,-0.00264976,0.0003473893,0.0003452948,0.001142733,0.0009914776,1179.956,1172.805,0,99.3971,,
	09/04/2022 16:15:18.587,2.64095e+06,1168.42,436.00,6.00,-0.001059898,2.499991,-0.00264974,0.0003460116,0.0003439518,0.001138219,0.0009875648,1175.262,1168.243,0,99.40469,,
	09/04/2022 17:33:12.482,2.64562e+06,1163.93,438.00,6.00,-0.001059878,2.499997,-0.00264969,0.0003446796,0.0003426156,0.001133858,0.0009836707,1170.73,1163.738,0,99.40116,,
	09/04/2022 18:50:48.837,2.65028e+06,1159.53,440.00,6.00,-0.001060165,2.499995,-0.00265041,0.0003434234,0.0003413644,0.001129722,0.0009800266,1166.397,1159.347,0,99.40044,,
	09/04/2022 20:08:07.239,2.65491e+06,1154.79,442.00,6.00,-0.00105985,2.499995,-0.00264962,0.0003420383,0.0003399259,0.001125186,0.0009758491,1161.74,1154.597,0,99.38241,,
	09/04/2022 21:25:06.333,2.65953e+06,1150.64,444.00,6.00,-0.001059854,2.499995,-0.00264963,0.0003406313,0.0003387069,0.001120574,0.0009722933,1156.944,1150.465,0,99.43507,,
	09/04/2022 22:41:52.432,2.66414e+06,1147.39,446.00,6.00,-0.001059903,2.499993,-0.00264975,0.0003396775,0.0003377595,0.00111742,0.0009695521,1153.747,1147.212,0,99.43535,,
	09/04/2022 23:58:29.143,2.66874e+06,1145.39,448.00,6.00,-0.001059935,2.499988,-0.00264982,0.0003390828,0.0003371812,0.001115448,0.0009679117,1151.733,1145.215,0,99.43922,,
	09/05/2022 01:14:56.261,2.67332e+06,1142.81,450.00,6.00,-0.001059999,2.499991,-0.00264999,0.0003383865,0.0003364406,0.001113144,0.0009658089,1149.115,1142.626,0,99.42493,,
	09/05/2022 02:31:14.904,2.6779e+06,1141.17,452.00,6.00,-0.001060034,2.499991,-0.00265008,0.0003377998,0.0003359693,0.00111121,0.0009644843,1147.135,1140.987,0,99.45811,,
	09/05/2022 03:47:27.322,2.68247e+06,1139.86,454.00,6.00,-0.001060001,2.499997,-0.00265,0.0003374177,0.0003355886,0.001109921,0.0009634399,1145.868,1139.677,0,99.4579,,
	09/05/2022 05:03:36.909,2.68704e+06,1139.16,456.00,6.00,-0.001060036,2.49999,-0.00265008,0.000337222,0.0003353765,0.00110922,0.0009628822,1145.201,1138.981,0,99.45274,,
	09/05/2022 06:19:44.079,2.69161e+06,1138.24,458.00,6.00,-0.001060043,2.499997,-0.0026501,0.0003370674,0.0003351098,0.00110868,0.0009621566,1144.691,1138.052,0,99.41924,,
	09/05/2022 07:35:45.117,2.69617e+06,1136.39,460.00,6.00,-0.001060036,2.49999,-0.00265008,0.0003365631,0.0003345638,0.001106994,0.0009606077,1142.976,1136.208,0,99.40598,,
	09/05/2022 08:51:21.973,2.70071e+06,1127.85,462.00,6.00,-0.00106001,2.499999,-0.00265002,0.0003343172,0.0003320391,0.001099647,0.0009531695,1135.319,1127.676,0,99.31857,,
	09/05/2022 10:06:19.374,2.70521e+06,1118.81,464.00,6.00,-0.001059927,2.499993,-0.00264981,0.0003314663,0.0003293535,0.001090368,0.0009452393,1125.646,1118.639,0,99.36259,,
	09/05/2022 11:20:53.043,2.70968e+06,1114.01,466.00,6.00,-0.00105992,2.499997,-0.0026498,0.0003298433,0.0003279328,0.001085061,0.0009410764,1120.362,1113.833,0,99.42078,,
	09/05/2022 12:35:10.538,2.71414e+06,1110.58,468.00,6.00,-0.001059912,2.499993,-0.00264977,0.0003286997,0.0003269291,0.001081312,0.0009381525,1116.282,1110.41,0,99.46135,,
	09/05/2022 13:49:13.253,2.71858e+06,1106.23,470.00,6.00,-0.00105989,2.499986,-0.00264971,0.0003275127,0.0003256525,0.001077419,0.0009344302,1112.446,1106.069,0,99.43202,,
	09/05/2022 15:03:00.304,2.72301e+06,1102.8,472.00,6.00,-0.001059982,2.499993,-0.00264995,0.0003264818,0.0003246382,0.001074044,0.000931462,1108.812,1102.627,0,99.43533,,
	09/05/2022 16:16:33.430,2.72742e+06,1099.45,474.00,6.00,-0.00105998,2.49999,-0.00264994,0.0003255112,0.0003236728,0.001070851,0.0009287149,1105.372,1099.287,0,99.43522,,
	09/05/2022 17:29:59.197,2.73183e+06,1097.9,476.00,6.00,-0.001060019,2.499976,-0.00265002,0.0003249824,0.0003232152,0.00106908,0.0009274252,1103.584,1097.722,0,99.45621,,
	09/05/2022 18:43:42.138,2.73625e+06,1108.58,478.00,6.00,-0.001059873,2.49999,-0.00264967,0.0003269145,0.0003263718,0.001075389,0.000936845,1110.306,1108.407,0,99.83401,,
	09/05/2022 19:59:26.723,2.74079e+06,1144.17,480.00,6.00,-0.001059966,2.499997,-0.00264991,0.0003375944,0.000336831,0.001110273,0.0009681484,1146.423,1144,0,99.77388,,
	09/05/2022 21:17:09.603,2.74546e+06,1168.3,482.00,6.00,-0.00106005,2.499995,-0.00265012,0.0003455509,0.0003439515,0.001136105,0.0009894784,1173.486,1168.125,0,99.53713,,
	09/05/2022 22:36:00.560,2.75019e+06,1183.17,484.00,6.00,-0.001060061,2.499999,-0.00265015,0.0003501517,0.0003483391,0.001150905,0.001002683,1189.166,1182.975,0,99.48233,,
	09/05/2022 23:55:29.582,2.75496e+06,1189.52,486.00,6.00,-0.001060029,2.499995,-0.00265007,0.0003523787,0.000350204,0.001157909,0.001008319,1196.731,1189.328,0,99.38285,,
	09/06/2022 01:15:04.215,2.75973e+06,1189.63,488.00,6.00,-0.001060076,2.499995,-0.00265018,0.0003525493,0.000350245,0.001158241,0.001008527,1197.301,1189.445,0,99.34639,,
	09/06/2022 02:34:35.028,2.7645e+06,1188.05,490.00,6.00,-0.001060002,2.499997,-0.00265,0.0003522055,0.0003497733,0.001156978,0.001007224,1196.126,1187.867,0,99.30943,,
	09/06/2022 03:53:57.869,2.76927e+06,1186.69,492.00,6.00,-0.00106005,2.49999,-0.00265011,0.000351536,0.000349379,0.001154665,0.001006082,1193.88,1186.511,0,99.38642,,
	09/06/2022 05:13:17.779,2.77403e+06,1185.97,494.00,6.00,-0.001060057,2.499986,-0.00265013,0.000351363,0.0003491649,0.001154016,0.001005547,1193.301,1185.78,0,99.37442,,
	09/06/2022 06:32:33.343,2.77878e+06,1184.59,496.00,6.00,-0.001060078,2.499993,-0.00265019,0.0003510639,0.0003487607,0.001152949,0.001004453,1192.285,1184.402,0,99.34394,,
	09/06/2022 07:51:37.522,2.78352e+06,1181.76,498.00,6.00,-0.001060081,2.499995,-0.0026502,0.0003500045,0.0003479346,0.001149424,0.00100202,1188.703,1181.578,0,99.4086,,
	09/06/2022 09:10:38.566,2.78827e+06,1180.19,500.00,6.00,-0.001059957,2.499986,-0.00264988,0.0003501026,0.0003474363,0.00114964,0.001000686,1189.043,1179.994,0,99.23843,,
	09/06/2022 10:28:17.969,2.79293e+06,1150.5,502.00,6.00,-0.00106007,2.499993,-0.00265017,0.000342099,0.0003387312,0.001123575,0.0009746074,1161.886,1150.317,0,99.01553,,
	09/06/2022 11:06:17.767,2.79521e+06,1134.58,503.00,6.00,-0.001060148,2.499984,-0.00265035,0.0003371158,0.0003340536,0.001107486,0.0009606249,1144.985,1134.409,0,99.09167,,