File: Cell-test-data/SiMP-LFP-PFF1/JB4_SiMP-LFP-PFF1_Channel_77_StatisticByCycle.CSV
Date_Time                    ,Test Time (s),Step Time (s),Cycle Index,Step Index,Current (A),Voltage (V),Power (W),Charge Capacity (Ah),Discharge Capacity (Ah),Charge Energy (Wh),Discharge Energy (Wh),Charge Time (s),Discharge Time (s),V_Max_On_Cycle (V),Coulombic Efficiency (%),mAh/g
	08/06/2022 16:36:24.194,182606.705,64422.3,1,3,-0.000159008,2.499993,-0.000397519,0.003311374,0.002844972,0.01100335,0.008440274,74974.68,64414.09,0,85.91515,,
	08/09/2022 15:16:20.182,437003,62301.1,3,3,-0.0001590066,2.49999,-0.000397515,0.002815269,0.002751326,0.009060343,0.008116629,63741.33,62293.18,0,97.72872,,
	08/10/2022 00:34:33.883,470496.394,8137.73,5,6,-0.001060034,2.499978,-0.00265006,0.002434275,0.002395908,0.007919727,0.00693942,8266.951,8136.671,0,98.42387,,
	08/10/2022 09:29:34.715,502597,7905.98,7,6,-0.001059952,2.499993,-0.00264987,0.002364827,0.002327526,0.007692885,0.006730949,8030.62,7904.993,0,98.4227,,
	08/10/2022 18:13:57.268,534060,7771.16,9,6,-0.001060134,2.499997,-0.00265033,0.002324987,0.002288134,0.007558526,0.006622608,7896.038,7770.167,0,98.41494,,
	08/11/2022 02:47:08.202,564851,7578.2,11,6,-0.001060055,2.499993,-0.00265013,0.002271855,0.00223127,0.007384696,0.006458951,7715.778,7577.213,0,98.21355,,
	08/11/2022 11:04:07.431,594670,7321.16,13,6,-0.001060069,2.499993,-0.00265017,0.002195162,0.002155459,0.00714169,0.00623332,7454.424,7320.282,0,98.19135,,
	08/11/2022 19:09:30.188,623793,7174.59,15,6,-0.001060057,2.499993,-0.00265014,0.002150905,0.00211245,0.006995798,0.006118212,7304.937,7173.722,0,98.21216,,
	08/12/2022 03:01:30.701,652113,6949.71,17,6,-0.001060053,2.499988,-0.00265012,0.002086061,0.00204608,0.006788336,0.005923855,7084.222,6948.799,0,98.08342,,
	08/12/2022 10:37:42.340,679485,6730.53,19,6,-0.001060017,2.49999,-0.00265003,0.002016233,0.001981457,0.006567264,0.005734693,6847.683,6729.722,0,98.27518,,
	08/12/2022 18:04:44.381,706307,6622.89,21,6,-0.00106012,2.499995,-0.00265029,0.001983701,0.00195001,0.006458134,0.005654291,6737.194,6622.027,0,98.3016,,
	08/13/2022 01:21:14.099,732497,6441.135,23,6,-0.001060031,2.499997,-0.00265007,0.001931156,0.001896399,0.006288635,0.005499069,6558.464,6440.338,0,98.2002,,
	08/13/2022 08:24:37.795,757900,6245.31,25,6,-0.001059994,2.499988,-0.00264997,0.001872187,0.001838663,0.006100964,0.005329501,6357.718,6244.58,0,98.20939,,
	08/13/2022 15:17:29.784,782672,6122.55,27,6,-0.001060081,2.499997,-0.0026502,0.001832521,0.001802652,0.005971767,0.005230704,6223.543,6121.798,0,98.37007,,
	08/13/2022 22:00:09.458,806832,5951.73,29,6,-0.001060024,2.499991,-0.00265005,0.001780487,0.001752267,0.005805845,0.005083073,6046.282,5950.922,0,98.41502,,
	08/14/2022 04:32:48.658,830391,5802.93,31,6,-0.001059948,2.499995,-0.00264986,0.001736194,0.001708414,0.005663004,0.004955841,5895.895,5802.217,0,98.39993,,
	08/14/2022 10:55:41.800,853364,5669.73,33,6,-0.001060123,2.499999,-0.00265031,0.001693518,0.001669269,0.005526192,0.00484335,5750.936,5669,0,98.56812,,
	08/14/2022 17:10:17.258,875839.769,5526.86,35,6,-0.001059964,2.499993,-0.0026499,0.00165362,0.001627065,0.00539733,0.004719917,5616.47,5526.169,0,98.39411,,
	08/14/2022 23:17:06.606,897849,5445.23,37,6,-0.001059999,2.49998,-0.00264998,0.001627052,0.001603208,0.005309472,0.004655973,5525.55,5444.56,0,98.5345,,
	08/15/2022 05:17:02.749,919445,5327.78,39,6,-0.001060039,2.499986,-0.00265008,0.001591979,0.001568588,0.005195617,0.004555892,5406.396,5327.078,0,98.53072,,
	08/15/2022 11:09:12.207,940575,5214.68,41,6,-0.001060113,2.499995,-0.00265028,0.001557786,0.00153535,0.005085282,0.004460428,5290.44,5214.032,0,98.55972,,
	08/15/2022 16:53:56.947,961259,5095.66,43,6,-0.001060029,2.499995,-0.00265007,0.001523772,0.001500245,0.004974982,0.004357439,5174.685,5094.975,0,98.45597,,
	08/15/2022 22:31:19.387,981501.898,5010.8,45,6,-0.001060132,2.499982,-0.00265031,0.001495002,0.001475345,0.004881796,0.004287954,5077.234,5010.142,0,98.68517,,
	08/16/2022 04:04:16.082,1.00148e+06,4937.95,47,6,-0.001060183,2.499986,-0.00265044,0.001474701,0.001453894,0.004813737,0.004228528,5008.685,4937.325,0,98.58911,,
	08/16/2022 09:30:53.727,1.02108e+06,4832.18,49,6,-0.001059994,2.49998,-0.00264996,0.00144543,0.001422706,0.004718401,0.004136833,4909.072,4831.586,0,98.42793,,
	08/16/2022 14:48:03.565,1.04011e+06,4695.32,51,6,-0.001059968,2.499997,-0.00264992,0.00140182,0.001382355,0.004580325,0.004015568,4760.61,4694.727,0,98.61146,,
	08/16/2022 19:58:45.121,1.05875e+06,4616.5,53,6,-0.001060124,2.499991,-0.0026503,0.001375837,0.001359269,0.004496239,0.003950031,4672.641,4615.882,0,98.79579,,
	08/17/2022 01:06:26.737,1.07721e+06,4571.05,55,6,-0.001059847,2.499997,-0.00264961,0.001363456,0.00134576,0.004453459,0.003914742,4631.045,4570.523,0,98.70214,,
	08/17/2022 06:09:32.122,1.09539e+06,4497.9,57,6,-0.00105982,2.499986,-0.00264954,0.001341615,0.001324086,0.004381946,0.003852558,4556.723,4497.271,0,98.6934,,
	08/17/2022 11:06:40.401,1.11322e+06,4400.51,59,6,-0.001060134,2.499991,-0.00265033,0.00131297,0.001295558,0.004289639,0.003768435,4459.467,4399.921,0,98.67385,,
	08/17/2022 15:58:05.199,1.13071e+06,4319.47,61,6,-0.001060104,2.499993,-0.00265025,0.001289643,0.001271796,0.004213796,0.003699024,4380.14,4318.934,0,98.61613,,
	08/17/2022 20:41:30.039,1.14771e+06,4190.49,63,6,-0.001059959,2.499982,-0.00264988,0.001250485,0.001233637,0.004089791,0.003582664,4246.55,4189.97,0,98.65269,,
	08/18/2022 01:18:49.175,1.16435e+06,4119.19,65,6,-0.001060073,2.499997,-0.00265018,0.00122742,0.001212782,0.004015276,0.003522414,4168.179,4118.687,0,98.80741,,
	08/18/2022 05:52:13.962,1.18076e+06,4058.94,67,6,-0.001059927,2.499991,-0.00264981,0.001210589,0.001194969,0.003959868,0.003471464,4111.344,4058.459,0,98.70974,,
	08/18/2022 10:20:35.116,1.19686e+06,3987.624,69,6,-0.001060084,2.499982,-0.00265019,0.001187374,0.001174015,0.003885095,0.003409744,4032.174,3987.128,0,98.87492,,
	08/18/2022 14:45:05.504,1.21273e+06,3926.38,71,6,-0.001059955,2.499982,-0.00264987,0.001169877,0.001155931,0.003828033,0.003357191,3972.911,3925.873,0,98.80791,,
	08/18/2022 19:05:26.069,1.22835e+06,3869.382,73,6,-0.001060047,2.499991,-0.00265011,0.001152544,0.001139202,0.003771438,0.003309002,3914.192,3868.901,0,98.84236,,
	08/18/2022 23:21:38.268,1.24372e+06,3802.13,75,6,-0.001059931,2.499993,-0.00264982,0.001133172,0.001119282,0.003708832,0.003250383,3848.187,3801.638,0,98.77421,,
	08/19/2022 03:33:31.806,1.25883e+06,3742.19,77,6,-0.001059842,2.499976,-0.00264958,0.001114421,0.00110162,0.003648135,0.003198731,3785.172,3741.71,0,98.8513,,
	08/19/2022 07:41:32.166,1.27371e+06,3684.66,79,6,-0.001059859,2.499995,-0.00264964,0.001096834,0.001084685,0.00359105,0.003149098,3725.35,3684.209,0,98.8923,,
	08/19/2022 11:46:00.825,1288383.336,3635.18,81,6,-0.001060053,2.499999,-0.00265013,0.001082022,0.001070236,0.003542809,0.003107601,3675,3634.755,0,98.91079,,
	08/19/2022 15:47:48.623,1302891.134,3596.14,83,6,-0.001060057,2.499997,-0.00265014,0.001070424,0.001058793,0.003504283,0.003075318,3635.245,3595.686,0,98.91344,,
	08/19/2022 19:46:10.273,1.31719e+06,3541.84,85,6,-0.001060038,2.499986,-0.00265008,0.001054268,0.001042757,0.003451954,0.003028164,3580.254,3541.38,0,98.90822,,
	08/19/2022 23:40:59.153,1.33128e+06,3489.72,87,6,-0.001060001,2.499997,-0.00265,0.001038607,0.001027367,0.003401104,0.00298304,3526.924,3489.268,0,98.91772,,
	08/20/2022 03:32:28.087,1.34517e+06,3443.03,89,6,-0.001059975,2.499991,-0.00264993,0.00102421,0.001013626,0.003354315,0.002942962,3478.094,3442.581,0,98.96658,,
	08/20/2022 07:20:55.374,1.35888e+06,3397.4,91,6,-0.001060003,2.499984,-0.00264999,0.001011125,0.001000221,0.003311664,0.002904026,3433.609,3396.967,0,98.92157,,
	08/20/2022 11:06:35.923,1.37242e+06,3356.732,93,6,-0.001060038,2.499999,-0.00265009,0.0009992188,0.0009883007,0.003272839,0.002869516,3393.441,3356.342,0,98.90733,,
	08/20/2022 14:49:11.651,1.38577e+06,3308.62,95,6,-0.001060015,2.499972,-0.00265001,0.0009846549,0.0009740556,0.003225499,0.002827523,3343.854,3308.187,0,98.92355,,
	08/20/2022 18:28:50.373,1.39895e+06,3268.49,97,6,-0.001060002,2.499997,-0.00265,0.0009719596,0.0009622919,0.003184088,0.002793381,3300.736,3268.08,0,99.00534,,
	08/20/2022 22:05:47.278,1.41197e+06,3228.22,99,6,-0.001060025,2.499995,-0.00265006,0.0009602619,0.0009504472,0.003145949,0.00275897,3261.033,3227.828,0,98.97791,,
	08/21/2022 01:40:03.801,1.42483e+06,3187.26,101,6,-0.001059977,2.499984,-0.00264993,0.0009478754,0.0009383069,0.003105561,0.002723308,3218.8,3186.867,0,98.99053,,
	08/21/2022 05:11:26.558,1.43751e+06,3143.26,103,6,-0.00105989,2.499993,-0.00264972,0.0009350883,0.0009253107,0.003064143,0.002685139,3176.027,3142.865,0,98.95436,,
	08/21/2022 08:40:10.846,1.45003e+06,3107.106,105,6,-0.00105987,2.499986,-0.00264966,0.0009235303,0.0009146828,0.003026504,0.002654196,3136.8,3106.726,0,99.04198,,
	08/21/2022 12:06:35.271,1.46242e+06,3072.85,107,6,-0.001060057,2.49999,-0.00265013,0.0009134343,0.0009046756,0.002993505,0.002625244,3101.852,3072.456,0,99.04113,,
	08/21/2022 15:30:46.729,1474669.24,3039.88,109,6,-0.001060015,2.499991,-0.00265003,0.0009035533,0.0008949816,0.00296113,0.002597213,3068.455,3039.481,0,99.05134,,
	08/21/2022 18:52:39.659,1.48678e+06,3004.83,111,6,-0.001059988,2.499997,-0.00264997,0.0008932302,0.0008846109,0.002927558,0.002566688,3033.243,3004.439,0,99.03504,,
	08/21/2022 22:12:05.294,1.49875e+06,2967.71,113,6,-0.001059917,2.499986,-0.00264978,0.0008821334,0.0008736476,0.002891425,0.002534546,2996.186,2967.328,0,99.03803,,
	08/22/2022 01:29:13.399,1.51058e+06,2934.39,115,6,-0.001059852,2.499995,-0.00264962,0.0008721797,0.000863804,0.002859072,0.002505737,2962.383,2934.014,0,99.03967,,
	08/22/2022 04:43:59.681,1.52226e+06,2898.62,117,6,-0.001060131,2.499999,-0.00265033,0.0008614261,0.0008534151,0.002824133,0.002475128,2925.767,2898.281,0,99.07003,,
	08/22/2022 07:56:28.358,1533810.869,2866.38,119,6,-0.001059842,2.49999,-0.00264959,0.000851496,0.000843776,0.002791909,0.002446926,2892.064,2866.004,0,99.09336,,
	08/22/2022 11:07:06.003,1.54525e+06,2840.57,121,6,-0.001060015,2.499993,-0.00265003,0.0008436486,0.0008362959,0.002766113,0.002425598,2865.232,2840.205,0,99.12846,,
	08/22/2022 14:16:30.241,1556612.752,2822.75,123,6,-0.001060085,2.499978,-0.00265019,0.0008388002,0.0008311014,0.00274982,0.002411206,2848.576,2822.395,0,99.08218,,
	08/22/2022 17:24:02.064,1.56786e+06,2790.47,125,6,-0.00106001,2.499993,-0.00265002,0.0008294233,0.0008215454,0.002719234,0.002382979,2816.617,2790.152,0,99.0502,,
	08/22/2022 20:29:21.061,1.57898e+06,2760.35,127,6,-0.001060029,2.499995,-0.00265007,0.0008200263,0.0008126892,0.002688742,0.002356979,2784.756,2760.015,0,99.10526,,
	08/22/2022 23:32:52.612,1.59e+06,2734.32,129,6,-0.001060029,2.49999,-0.00265006,0.0008121542,0.0008050204,0.002662992,0.002334685,2758.02,2733.974,0,99.12163,,
	08/23/2022 02:34:29.979,1.60089e+06,2704.77,131,6,-0.001059978,2.49998,-0.00264992,0.0008034276,0.0007963104,0.002634565,0.002309185,2728.374,2704.43,0,99.11415,,
	08/23/2022 05:34:10.475,1.61167e+06,2676,133,6,-0.001059975,2.499997,-0.00264993,0.0007948835,0.0007878338,0.00260679,0.002284231,2699.379,2675.673,0,99.11312,,
	08/23/2022 08:31:58.723,1.62234e+06,2648.57,135,6,-0.001060031,2.499978,-0.00265005,0.0007867066,0.0007797477,0.002580224,0.002260462,2671.583,2648.229,0,99.11545,,
	08/23/2022 11:28:19.829,1632922.34,2631.25,137,6,-0.001060101,2.499995,-0.00265025,0.0007813256,0.0007747177,0.002562408,0.002246386,2653.425,2630.912,0,99.15427,,
	08/23/2022 14:23:23.014,1.64343e+06,2606.56,139,6,-0.001060047,2.499999,-0.00265012,0.0007744447,0.0007674373,0.002539858,0.002225052,2630.058,2606.22,0,99.09518,,
	08/23/2022 17:16:29.950,1.65381e+06,2578.29,141,6,-0.001060015,2.499999,-0.00265004,0.0007655987,0.0007590836,0.002511169,0.002200313,2599.935,2577.971,0,99.14902,,
	08/23/2022 20:07:54.700,1.6641e+06,2553.59,143,6,-0.001060015,2.499997,-0.00265003,0.0007584236,0.0007518026,0.002487737,0.002179063,2575.526,2553.258,0,99.127,,
	08/23/2022 22:57:40.221,1.67428e+06,2528.38,145,6,-0.001059889,2.499993,-0.00264972,0.0007509809,0.0007443397,0.002463479,0.002157065,2550.561,2528.079,0,99.11568,,
	08/24/2022 01:45:38.819,1.68436e+06,2502.35,147,6,-0.001059906,2.499986,-0.00264975,0.0007430792,0.0007366335,0.002437886,0.002134259,2523.935,2502.037,0,99.13257,,
	08/24/2022 04:31:56.147,1.69434e+06,2477.89,149,6,-0.001059884,2.49999,-0.0026497,0.0007355211,0.0007294468,0.0024133,0.002113139,2498.269,2477.576,0,99.17416,,
	08/24/2022 07:16:40.635,1.70422e+06,2454.91,151,6,-0.001059876,2.499999,-0.00264969,0.0007288624,0.0007226595,0.002391627,0.002093276,2475.615,2454.6,0,99.14897,,
	08/24/2022 10:00:04.379,1.71403e+06,2436.77,153,6,-0.001059936,2.499993,-0.00264983,0.0007230839,0.0007173516,0.002372713,0.002077859,2456.031,2436.471,0,99.20724,,
	08/24/2022 12:42:25.487,1.72377e+06,2423.84,155,6,-0.001060118,2.499997,-0.00265029,0.0007190354,0.0007136508,0.002359325,0.002067541,2441.831,2423.535,0,99.25114,,
	08/24/2022 15:23:57.834,1733460.345,2409.06,157,6,-0.001060066,2.499995,-0.00265016,0.0007152371,0.0007093119,0.00234665,0.002055208,2429.096,2408.758,0,99.17158,,
	08/24/2022 18:04:09.390,1.74307e+06,2387.14,159,6,-0.001060062,2.499993,-0.00265015,0.0007086894,0.0007028304,0.002325248,0.002036166,2406.724,2386.834,0,99.17326,,
	08/24/2022 20:42:46.697,1752589.208,2364.13,161,6,-0.001059949,2.499997,-0.00264987,0.0007016285,0.0006960056,0.002302244,0.002015949,2382.653,2363.834,0,99.1986,,
	08/24/2022 23:19:47.911,1762010.422,2338.62,163,6,-0.001059957,2.49999,-0.00264988,0.0006945592,0.0006884645,0.002279387,0.00199365,2359.152,2338.33,0,99.1225,,
	08/25/2022 01:55:16.915,1.77134e+06,2317.28,165,6,-0.001059921,2.499986,-0.00264979,0.0006878724,0.0006821629,0.002257606,0.001975001,2336.427,2317.002,0,99.16997,,
	08/25/2022 04:29:24.602,1.78059e+06,2297.77,167,6,-0.001059884,2.499995,-0.0026497,0.0006818378,0.0006764273,0.002237935,0.001958267,2315.948,2297.472,0,99.20648,,
	08/25/2022 07:02:19.848,1.78976e+06,2279.8,169,6,-0.001059949,2.49997,-0.00264984,0.0006767442,0.0006711429,0.002221297,0.001942824,2298.644,2279.522,0,99.17231,,
	08/25/2022 09:34:05.548,1.79887e+06,2263.15,171,6,-0.001059997,2.499986,-0.00264998,0.0006717255,0.0006662807,0.002204864,0.001928751,2281.129,2262.858,0,99.18945,,
	08/25/2022 12:04:53.654,1.80792e+06,2250.99,173,6,-0.001060066,2.499991,-0.00265016,0.0006677034,0.0006627237,0.002191614,0.001918637,2267.502,2250.717,0,99.2542,,
	08/25/2022 14:35:06.161,1.81693e+06,2240.12,175,6,-0.001060057,2.499997,-0.00265014,0.0006646595,0.000659565,0.002181367,0.001909752,2257.254,2239.844,0,99.23353,,
	08/25/2022 17:04:16.188,1.82588e+06,2222.74,177,6,-0.001060053,2.499999,-0.00265013,0.0006599048,0.0006544478,0.002165765,0.0018948,2241.117,2222.494,0,99.17307,,
	08/25/2022 19:31:59.505,1.83474e+06,2201.82,179,6,-0.001060045,2.49999,-0.0026501,0.0006536021,0.0006482612,0.002145312,0.001876499,2219.623,2201.552,0,99.18285,,
	08/25/2022 21:58:21.443,1.84352e+06,2182.23,181,6,-0.001059962,2.499999,-0.0026499,0.0006474924,0.0006424348,0.002125486,0.001859266,2198.743,2181.966,0,99.21889,,
	08/26/2022 00:23:24.542,1.85223e+06,2162.79,183,6,-0.001060034,2.499993,-0.00265008,0.000641634,0.0006367388,0.002106409,0.00184248,2178.881,2162.526,0,99.23706,,
	08/26/2022 02:47:17.296,1860859.807,2145.48,185,6,-0.001059924,2.499995,-0.0026498,0.0006365125,0.0006315992,0.002089724,0.001827348,2161.912,2145.226,0,99.22807,,
	08/26/2022 05:09:58.534,1.86942e+06,2127.4,187,6,-0.001059912,2.499991,-0.00264977,0.000631148,0.0006262777,0.002072264,0.001811632,2143.79,2127.142,0,99.22834,,
	08/26/2022 07:31:37.701,1.87792e+06,2113.65,189,6,-0.001059924,2.49999,-0.0026498,0.0006269182,0.0006222376,0.002058395,0.001799947,2129.393,2113.401,0,99.2534,,
	08/26/2022 09:52:21.132,1.88636e+06,2099.93,191,6,-0.001059971,2.499982,-0.00264991,0.0006226419,0.0006182301,0.002044362,0.001788301,2114.699,2099.68,0,99.29144,,
	08/26/2022 12:12:14.539,1894757.05,2088.08,193,6,-0.001060039,2.499999,-0.0026501,0.0006192228,0.0006147683,0.002033127,0.001778315,2102.823,2087.819,0,99.28063,,
	08/26/2022 14:31:30.976,1.90311e+06,2079.85,195,6,-0.001060067,2.499995,-0.00265016,0.0006166805,0.0006123699,0.002024676,0.001771587,2094.258,2079.615,0,99.30101,,
	08/26/2022 16:50:05.381,1.91143e+06,2067.33,197,6,-0.001060029,2.49998,-0.00265005,0.0006132264,0.0006086664,0.00201327,0.001760855,2082.581,2067.071,0,99.25639,,
	08/26/2022 19:07:33.157,1.91968e+06,2049.11,199,6,-0.00106007,2.49999,-0.00265016,0.0006080542,0.0006033194,0.001996462,0.001745012,2064.925,2048.855,0,99.22132,,
	08/26/2022 21:23:54.873,1.92786e+06,2033.19,201,6,-0.001059975,2.499991,-0.00264993,0.0006033988,0.0005985659,0.00198128,0.001730992,2049.048,2032.944,0,99.19906,,
	08/26/2022 23:39:04.295,1.93597e+06,2015.32,203,6,-0.001059924,2.499988,-0.0026498,0.000597744,0.0005932798,0.001962937,0.0017153,2030.287,2015.049,0,99.25316,,
	08/27/2022 01:53:12.055,1.94401e+06,2000.77,205,6,-0.001059876,2.499995,-0.00264968,0.0005933804,0.0005889887,0.001948721,0.001702723,2015.47,2000.527,0,99.25988,,
	08/27/2022 04:06:26.865,1.95201e+06,1988.63,207,6,-0.001059892,2.499984,-0.00264971,0.0005894953,0.0005853946,0.00193599,0.001692188,2002.252,1988.37,0,99.30437,,
	08/27/2022 06:18:44.063,1959946.574,1973,209,6,-0.001059894,2.499986,-0.00264972,0.0005850457,0.0005808139,0.001921533,0.001678649,1987.093,1972.764,0,99.27668,,
	08/27/2022 08:30:02.248,1.96782e+06,1959.43,211,6,-0.001060168,2.499999,-0.00265042,0.0005808686,0.0005768134,0.001907917,0.001666972,1972.935,1959.189,0,99.30188,,
	08/27/2022 10:40:35.647,1.97566e+06,1948.84,213,6,-0.001059936,2.499986,-0.00264983,0.0005777027,0.0005737089,0.001897508,0.001658031,1962.174,1948.598,0,99.30867,,
	08/27/2022 12:50:31.642,1.98345e+06,1940.23,215,6,-0.001059997,2.499997,-0.00264999,0.0005750843,0.0005712258,0.001888862,0.001650893,1952.951,1939.986,0,99.32906,,
	08/27/2022 14:59:49.586,1.99121e+06,1928.97,217,6,-0.001060041,2.499999,-0.0026501,0.000572073,0.0005679112,0.001878923,0.001641283,1942.703,1928.726,0,99.27251,,
	08/27/2022 17:08:16.267,1.99892e+06,1916.502,219,6,-0.001060062,2.49999,-0.00265014,0.0005684454,0.0005642659,0.001867101,0.001630642,1930.43,1916.278,0,99.26474,,
	08/27/2022 19:15:55.919,2.00658e+06,1904.96,221,6,-0.001059975,2.499993,-0.00264993,0.0005650143,0.0005608603,0.001855849,0.001620695,1918.761,1904.738,0,99.26479,,
	08/27/2022 21:22:44.877,2.01419e+06,1891.84,223,6,-0.001059948,2.49998,-0.00264985,0.0005610562,0.0005569441,0.001842927,0.001609126,1905.641,1891.607,0,99.26707,,
	08/27/2022 23:28:40.722,2.02174e+06,1879.01,225,6,-0.001059889,2.499986,-0.00264971,0.0005571575,0.0005531542,0.00183022,0.001598012,1892.421,1878.775,0,99.28147,,
	08/28/2022 01:33:45.707,2.02925e+06,1866.15,227,6,-0.001059913,2.499995,-0.00264978,0.0005534053,0.0005493554,0.001818003,0.001586839,1879.667,1865.908,0,99.26818,,
	08/28/2022 03:37:56.657,2036699.168,1852.79,229,6,-0.001059894,2.499997,-0.00264973,0.0005493027,0.0005454123,0.001804625,0.001575183,1865.72,1852.546,0,99.29176,,
	08/28/2022 05:41:15.867,2.0441e+06,1840.045,231,6,-0.001059892,2.499986,-0.00264972,0.0005455498,0.0005417019,0.001792415,0.001564298,1852.939,1839.823,0,99.29466,,
	08/28/2022 07:43:49.047,2.05145e+06,1829.55,233,6,-0.00105982,2.499999,-0.00264955,0.0005422216,0.000538569,0.001781513,0.001555128,1841.653,1829.325,0,99.32637,,
	08/28/2022 09:45:48.209,2.05877e+06,1821.04,235,6,-0.001059946,2.499986,-0.00264985,0.0005398339,0.0005360817,0.001773645,0.001548001,1833.561,1820.802,0,99.30495,,
	08/28/2022 11:47:09.669,2.06605e+06,1812.18,237,6,-0.001059978,2.499999,-0.00264994,0.0005370319,0.0005335161,0.001764452,0.001540559,1823.862,1811.947,0,99.34534,,
	08/28/2022 13:48:02.461,2.0733e+06,1805.65,239,6,-0.001060019,2.499997,-0.00265004,0.0005352225,0.0005316293,0.001758457,0.001535199,1817.58,1805.438,0,99.32864,,
	08/28/2022 15:48:22.397,2.08052e+06,1796.52,241,6,-0.001060066,2.499999,-0.00265016,0.0005324711,0.0005289213,0.001749404,0.001527326,1808.177,1796.309,0,99.33333,,
	08/28/2022 17:47:59.838,2.0877e+06,1786.14,243,6,-0.001060066,2.499995,-0.00265016,0.0005292655,0.000525861,0.001738913,0.00151834,1797.364,1785.915,0,99.35676,,
	08/28/2022 19:46:56.504,2094839.015,1775.59,245,6,-0.001059931,2.499997,-0.00264982,0.0005263315,0.0005227356,0.001729336,0.001509197,1787.36,1775.356,0,99.3168,,
	08/28/2022 21:45:09.372,2.10193e+06,1764.24,247,6,-0.001059949,2.499993,-0.00264987,0.0005230244,0.0005193718,0.00171854,0.001499341,1776.518,1764.019,0,99.30164,,
	08/28/2022 23:42:40.032,2.10898e+06,1753.949,249,6,-0.001059952,2.499999,-0.00264988,0.0005199118,0.00051635,0.001708357,0.001490456,1765.952,1753.732,0,99.31491,,
	08/29/2022 01:39:27.349,2.11599e+06,1742.46,251,6,-0.001059912,2.499999,-0.00264978,0.0005166078,0.0005129695,0.001697577,0.001480529,1754.724,1742.255,0,99.29572,,
	08/29/2022 03:35:27.841,2.12295e+06,1731.6,253,6,-0.001059927,2.499984,-0.0026498,0.0005131421,0.0005097472,0.001686293,0.001471005,1742.885,1731.386,0,99.3384,,
	08/29/2022 05:30:45.491,2.12987e+06,1720.67,255,6,-0.001059898,2.499999,-0.00264974,0.0005100432,0.0005065538,0.00167619,0.001461647,1732.413,1720.48,0,99.31586,,
	08/29/2022 07:25:24.208,2.13675e+06,1712.02,257,6,-0.00105989,2.499997,-0.00264972,0.0005072149,0.0005039927,0.00166695,0.001454178,1722.797,1711.812,0,99.36472,,
	08/29/2022 09:19:32.676,2.1436e+06,1704.59,259,6,-0.001059971,2.499988,-0.00264991,0.0005051133,0.000501831,0.001660014,0.001447965,1715.452,1704.363,0,99.35019,,
	08/29/2022 11:13:11.416,2.15041e+06,1697.23,261,6,-0.001060034,2.499999,-0.00265008,0.0005029851,0.0004996866,0.001653007,0.001441771,1708.254,1697.021,0,99.3442,,
	08/29/2022 13:06:22.688,2.15721e+06,1690.88,263,6,-0.001060048,2.499995,-0.00265011,0.0005009691,0.0004978345,0.001646354,0.00143644,1701.26,1690.654,0,99.3743,,
	08/29/2022 14:59:17.507,2.16398e+06,1686.98,265,6,-0.001060108,2.499984,-0.00265025,0.0004999044,0.0004967098,0.001642761,0.001433367,1697.711,1686.771,0,99.36095,,
	08/29/2022 16:51:41.676,2.17072e+06,1677.55,267,6,-0.001060148,2.499993,-0.00265036,0.0004974192,0.0004939343,0.001634597,0.00142525,1689.282,1677.348,0,99.29939,,
	08/29/2022 18:43:27.331,2.17743e+06,1668.27,269,6,-0.001060087,2.49999,-0.00265021,0.0004946533,0.0004911887,0.001625557,0.001417179,1679.881,1668.067,0,99.2996,,
	08/29/2022 20:34:30.621,2184093.132,1657.73,271,6,-0.001059983,2.499993,-0.00264995,0.0004912639,0.0004880402,0.001614507,0.001407856,1668.249,1657.522,0,99.3438,,
	08/29/2022 22:24:50.915,2.19071e+06,1646.68,273,6,-0.001059994,2.499995,-0.00264998,0.0004881007,0.0004847953,0.001604197,0.001398305,1657.66,1646.484,0,99.32278,,
	08/30/2022 00:14:32.368,2197294.879,1638,275,6,-0.001059892,2.499997,-0.00264973,0.000485279,0.0004822075,0.001594973,0.001390721,1648.183,1637.804,0,99.36706,,
	08/30/2022 02:03:36.436,2.20384e+06,1627.617,277,6,-0.001059945,2.499997,-0.00264986,0.0004824768,0.0004791467,0.001585823,0.001381703,1638.774,1627.416,0,99.30978,,
	08/30/2022 03:52:00.355,2.21034e+06,1617.96,279,6,-0.001059945,2.499991,-0.00264985,0.0004794996,0.0004763062,0.001576089,0.001373376,1628.671,1617.737,0,99.33402,,
	08/30/2022 18:25:37.234,2.21676e+06,1607.23,281,6,-0.001060064,2.499984,-0.00265014,0.000475751,0.0004731609,0.00156323,0.001363536,1615.671,1606.877,0,99.45557,,
	08/30/2022 20:12:27.470,2.22317e+06,1595.562,283,6,-0.001059957,2.499993,-0.00264989,0.000472479,0.0004697014,0.001552773,0.001353774,1604.465,1595.236,0,99.41212,,
	08/30/2022 21:58:43.458,2.22955e+06,1586.58,285,6,-0.001059917,2.499986,-0.00264978,0.0004700742,0.0004670294,0.001545002,0.001346055,1596.508,1586.243,0,99.35226,,
	08/30/2022 23:44:22.879,2.23589e+06,1577.19,287,6,-0.001059936,2.499995,-0.00264983,0.0004672127,0.0004642647,0.001535682,0.001337937,1586.94,1576.858,0,99.36903,,
	08/31/2022 01:29:25.105,2.24219e+06,1568.02,289,6,-0.001059912,2.499995,-0.00264977,0.0004645847,0.0004615581,0.001527139,0.001330013,1578.01,1567.698,0,99.34853,,
	08/31/2022 03:13:52.163,2.24846e+06,1559.77,291,6,-0.00105985,2.499995,-0.00264962,0.0004619967,0.0004591316,0.001518687,0.001322928,1569.178,1559.453,0,99.37984,,
	08/31/2022 04:57:46.942,2.25469e+06,1551.671,293,6,-0.001059948,2.49999,-0.00264986,0.000459685,0.0004567308,0.001511153,0.001315921,1561.283,1551.32,0,99.35734,,
	08/31/2022 06:41:09.616,2.2609e+06,1543.824,295,6,-0.001059906,2.499993,-0.00264976,0.00045727,0.0004544329,0.001503251,0.001309211,1553.115,1543.494,0,99.37957,,
	08/31/2022 08:24:04.883,2.26707e+06,1537.13,297,6,-0.00105985,2.499991,-0.00264962,0.0004553713,0.0004524577,0.001497032,0.001303482,1546.677,1536.79,0,99.36017,,
	08/31/2022 10:06:36.613,2.27322e+06,1532.04,299,6,-0.00105989,2.49999,-0.00264971,0.000453644,0.0004509779,0.001491338,0.001299224,1540.818,1531.73,0,99.41228,,
	08/31/2022 11:48:51.782,2.27936e+06,1527.53,301,6,-0.001060047,2.499986,-0.0026501,0.0004526036,0.0004496722,0.001487863,0.001295582,1537.115,1527.195,0,99.35232,,
	08/31/2022 13:30:56.794,2.28548e+06,1526.64,303,6,-0.001060016,2.499986,-0.00265003,0.0004521255,0.0004494147,0.001486186,0.001295032,1535.339,1526.315,0,99.40044,,
	08/31/2022 15:12:47.956,2.2916e+06,1521.55,305,6,-0.001060062,2.499991,-0.00265015,0.0004507278,0.0004479394,0.00148154,0.00129078,1530.63,1521.232,0,99.38134,,
	08/31/2022 16:54:17.307,2.29768e+06,1516.07,307,6,-0.001060045,2.499993,-0.00265011,0.0004491901,0.0004463362,0.00147647,0.001286144,1525.447,1515.767,0,99.36465,,
	08/31/2022 18:35:18.977,2.30375e+06,1508.96,309,6,-0.001060059,2.499995,-0.00265014,0.000447043,0.0004442358,0.00146942,0.001280001,1518.16,1508.636,0,99.37206,,
	08/31/2022 20:15:51.290,2.30978e+06,1501.53,311,6,-0.001060104,2.499997,-0.00265026,0.0004448833,0.0004420564,0.00146239,0.001273653,1510.863,1501.21,0,99.36458,,
	08/31/2022 21:55:57.492,2.31578e+06,1495,313,6,-0.001060089,2.499995,-0.00265022,0.0004429768,0.0004401431,0.001456105,0.001268057,1504.388,1494.68,0,99.36031,,
	08/31/2022 23:35:36.686,2.32176e+06,1488.68,315,6,-0.001060031,2.499993,-0.00265007,0.0004409051,0.0004382757,0.001449312,0.00126258,1497.336,1488.367,0,99.40363,,
	09/01/2022 01:14:48.757,2327716.058,1481.34,317,6,-0.00106005,2.499991,-0.00265012,0.0004388929,0.0004361081,0.001442747,0.001256247,1490.478,1481.024,0,99.3655,,
	09/01/2022 02:53:33.278,2.33364e+06,1475,319,6,-0.001060034,2.499999,-0.00265008,0.0004368772,0.0004342266,0.001436127,0.001250746,1483.567,1474.701,0,99.39326,,
	09/01/2022 04:31:51.204,2.33954e+06,1468.29,321,6,-0.001060055,2.499999,-0.00265014,0.0004349065,0.000432257,0.001429675,0.001245003,1476.9,1468.002,0,99.39079,,
	09/01/2022 06:09:41.739,2.34541e+06,1461.51,323,6,-0.001059999,2.499997,-0.00264999,0.0004328557,0.0004302446,0.001422948,0.001239106,1469.946,1461.207,0,99.39677,,
	09/01/2022 07:47:01.777,2.35125e+06,1453.61,325,6,-0.001060033,2.499991,-0.00265007,0.0004305743,0.0004279267,0.001415523,0.001232282,1462.168,1453.29,0,99.38509,,
	09/01/2022 09:23:58.828,2.35707e+06,1449.87,327,6,-0.001060083,2.499997,-0.0026502,0.0004292405,0.0004268331,0.001411138,0.001229214,1457.73,1449.548,0,99.43916,,
	09/01/2022 11:00:47.108,2.36287e+06,1445.82,329,6,-0.001060011,2.499997,-0.00265002,0.0004284288,0.0004256458,0.001408355,0.001225808,1454.959,1445.52,0,99.35041,,
	09/01/2022 12:36:58.094,2.36865e+06,1435.4,331,6,-0.00105996,2.499988,-0.00264989,0.0004253323,0.0004225523,0.001398298,0.001216654,1444.357,1435.098,0,99.3464,,
	09/01/2022 14:12:33.769,2.37438e+06,1427.35,333,6,-0.001059922,2.499988,-0.00264979,0.0004229084,0.0004201467,0.001390402,0.00120957,1436.419,1427.042,0,99.34698,,
	09/01/2022 15:47:39.773,2.38009e+06,1420.13,335,6,-0.001059954,2.499986,-0.00264987,0.0004207058,0.0004180352,0.001383206,0.001203368,1428.949,1419.841,0,99.3652,,
	09/01/2022 17:22:17.332,2.38576e+06,1413.29,337,6,-0.001059918,2.499995,-0.00264979,0.0004185459,0.000416018,0.001376144,0.001197424,1421.621,1413,0,99.39602,,
	09/01/2022 18:56:26.079,2.39141e+06,1405.58,339,6,-0.00105992,2.499984,-0.00264978,0.0004164297,0.0004137468,0.001369229,0.001190772,1414.47,1405.286,0,99.35575,,
	09/01/2022 20:30:07.421,2397034.722,1399.95,341,6,-0.00105996,2.499997,-0.0026499,0.0004145805,0.0004121129,0.001363182,0.001186023,1408.181,1399.663,0,99.4048,,
	09/01/2022 22:03:34.629,2.40264e+06,1397.41,343,6,-0.001060024,2.499999,-0.00265006,0.0004137136,0.0004113871,0.001360289,0.001184001,1404.931,1397.121,0,99.43765,,
	09/01/2022 23:36:48.587,2.40824e+06,1393.29,345,6,-0.001060084,2.499997,-0.00265021,0.000412636,0.0004101865,0.001356736,0.001180573,1401.336,1392.985,0,99.40638,,
	09/02/2022 01:09:44.277,2.41381e+06,1387.82,347,6,-0.001060041,2.499991,-0.00265009,0.0004112868,0.0004085665,0.001352275,0.001175866,1396.723,1387.525,0,99.33859,,
	09/02/2022 02:42:14.059,2.41936e+06,1381.29,349,6,-0.001059932,2.499969,-0.0026498,0.000409266,0.0004066027,0.001345641,0.001170097,1389.791,1380.994,0,99.34926,,
	09/02/2022 04:14:09.134,2424876.435,1372.47,351,6,-0.001059945,2.499976,-0.00264984,0.0004064035,0.0004040056,0.001336332,0.001162364,1380.389,1372.197,0,99.40997,,
	09/02/2022 05:45:34.270,2.43036e+06,1365.51,353,6,-0.001059833,2.499999,-0.00264958,0.0004043817,0.000401945,0.001329729,0.001156343,1373.5,1365.26,0,99.39744,,
	09/02/2022 07:16:35.021,2.43582e+06,1359.654,355,6,-0.001059896,2.499967,-0.00264971,0.0004026361,0.0004002198,0.001324019,0.001151306,1367.575,1359.377,0,99.39989,,
	09/02/2022 08:47:14.321,2.44126e+06,1354.14,357,6,-0.001059904,2.499997,-0.00264976,0.0004011955,0.0003985923,0.001319298,0.001146604,1362.684,1353.847,0,99.35114,,
	09/02/2022 10:17:33.450,2.44668e+06,1349.64,359,6,-0.001059968,2.499999,-0.00264992,0.0003996939,0.0003972854,0.00131436,0.001142801,1357.604,1349.345,0,99.3974,,
	09/02/2022 11:47:34.886,2.45208e+06,1345.77,361,6,-0.001060025,2.499986,-0.00265005,0.0003984393,0.0003961895,0.001310234,0.00113969,1353.05,1345.507,0,99.43534,,
	09/02/2022 13:17:30.369,2.45748e+06,1344.79,363,6,-0.001059982,2.499997,-0.00264995,0.0003981576,0.0003959097,0.001309223,0.001139011,1352.18,1344.513,0,99.43544,,
	09/02/2022 14:47:17.725,2.46287e+06,1341.94,365,6,-0.00106008,2.49999,-0.00265019,0.000397432,0.0003950734,0.001306803,0.00113662,1349.727,1341.653,0,99.40652,,
	09/02/2022 16:16:53.512,2.46824e+06,1338.76,367,6,-0.001060062,2.499986,-0.00265014,0.0003966292,0.0003941323,0.001304157,0.00113394,1347.023,1338.492,0,99.37047,,
	09/02/2022 17:46:00.561,2.47359e+06,1330.4,369,6,-0.001060053,2.499995,-0.00265013,0.0003941209,0.0003916765,0.001295956,0.001126663,1338.465,1330.131,0,99.37978,,
	09/02/2022 19:14:38.775,2.47891e+06,1323.04,371,6,-0.001060043,2.49998,-0.00265009,0.0003921254,0.0003894981,0.001289429,0.001120294,1331.614,1322.768,0,99.32999,,
	09/02/2022 20:42:53.087,2.4842e+06,1318.81,373,6,-0.001060045,2.499991,-0.0026501,0.0003905953,0.0003882539,0.001284414,0.001116649,1326.457,1318.54,0,99.40055,,
	09/02/2022 22:10:50.169,2.48948e+06,1313.62,375,6,-0.001060043,2.499993,-0.0026501,0.0003891989,0.0003867221,0.001279825,0.001112201,1321.715,1313.358,0,99.3636,,
	09/02/2022 23:38:20.337,2.49473e+06,1307.21,377,6,-0.00106009,2.499997,-0.00265022,0.0003870206,0.0003848342,0.001272722,0.001106667,1314.306,1306.932,0,99.43507,,
	09/03/2022 01:05:32.383,2.49996e+06,1302.31,379,6,-0.001060043,2.49999,-0.0026501,0.0003859351,0.0003833922,0.001269147,0.001102499,1310.614,1302.06,0,99.34111,,
	09/03/2022 02:32:18.551,2.50517e+06,1296.35,381,6,-0.001060024,2.499986,-0.00265005,0.0003839713,0.0003816233,0.001262727,0.001097309,1303.927,1296.075,0,99.38849,,
	09/03/2022 03:58:44.364,2.51035e+06,1291.5,383,6,-0.001059997,2.499988,-0.00264998,0.0003824543,0.0003801997,0.001257739,0.001093158,1298.781,1291.229,0,99.4105,,
	09/03/2022 05:24:51.909,2.51552e+06,1286.92,385,6,-0.001060016,2.499995,-0.00265003,0.0003811371,0.0003788687,0.001253418,0.001089302,1294.341,1286.658,0,99.40482,,
	09/03/2022 06:50:39.906,2520667.207,1282.02,387,6,-0.001060024,2.499982,-0.00265004,0.0003796793,0.0003774162,0.001248637,0.001085079,1289.386,1281.766,0,99.40395,,
	09/03/2022 08:16:10.487,2.5258e+06,1277.073,389,6,-0.001060095,2.49999,-0.00265023,0.0003783955,0.0003759758,0.001244427,0.001080897,1285.066,1276.826,0,99.36053,,
	09/03/2022 09:41:23.168,2.53091e+06,1273.88,391,6,-0.00106008,2.499972,-0.00265017,0.0003771345,0.0003750274,0.001240271,0.001078143,1280.752,1273.607,0,99.44128,,
	09/03/2022 11:06:22.042,2.53601e+06,1269.53,393,6,-0.001060029,2.499995,-0.00265007,0.000375979,0.000373743,0.001236466,0.001074411,1276.846,1269.257,0,99.40527,,
	09/03/2022 12:30:56.622,2.54108e+06,1262.74,395,6,-0.001060011,2.499995,-0.00265002,0.0003741264,0.0003717328,0.001230401,0.001068521,1270.52,1262.484,0,99.36022,,
	09/03/2022 13:55:03.869,2.54613e+06,1256.69,397,6,-0.001059954,2.499972,-0.00264986,0.000372155,0.0003699303,0.001223971,0.001063226,1263.759,1256.419,0,99.40221,,
	09/03/2022 15:18:46.810,2.55115e+06,1250.43,399,6,-0.001059988,2.499972,-0.00264994,0.000370321,0.0003680887,0.001217981,0.001057816,1257.579,1250.179,0,99.39721,,
	09/03/2022 16:42:07.070,2.55615e+06,1245,401,6,-0.001059924,2.499986,-0.0026498,0.0003686733,0.0003664903,0.001212584,0.001053158,1252.223,1244.756,0,99.40788,,
	09/03/2022 18:05:06.419,2.56113e+06,1240.04,403,6,-0.001059927,2.499997,-0.00264981,0.0003671673,0.0003650177,0.001207653,0.001048857,1247.087,1239.801,0,99.41454,,
	09/03/2022 19:27:45.525,2.56609e+06,1234.57,405,6,-0.001059908,2.499982,-0.00264975,0.0003655429,0.0003634049,0.00120234,0.001044136,1241.606,1234.324,0,99.41512,,
	09/03/2022 20:50:04.700,2.57103e+06,1229.78,407,6,-0.001059954,2.499993,-0.00264988,0.0003641999,0.0003620131,0.001197925,0.001040093,1237.012,1229.537,0,99.39957,,
	09/03/2022 22:12:05.859,2.57595e+06,1225.86,409,6,-0.001059978,2.499999,-0.00264994,0.0003629719,0.0003608678,0.001193914,0.001036795,1232.668,1225.602,0,99.42029,,
	09/03/2022 23:33:53.290,2.58086e+06,1222.7,411,6,-0.001060052,2.499993,-0.00265012,0.0003619692,0.0003599522,0.001190588,0.001034154,1229.202,1222.445,0,99.44279,,
	09/04/2022 00:55:30.047,2.58576e+06,1220.33,413,6,-0.001060047,2.499999,-0.00265012,0.0003611818,0.0003592588,0.001187969,0.001032208,1226.535,1220.082,0,99.46759,,
	09/04/2022 02:16:57.924,2.59065e+06,1218.02,415,6,-0.001060078,2.499999,-0.00265019,0.0003605183,0.0003585837,0.001185775,0.001030263,1224.308,1217.774,0,99.46338,,
	09/04/2022 03:38:16.448,2.59552e+06,1215.92,417,6,-0.001060073,2.499978,-0.00265016,0.0003598938,0.0003579787,0.001183682,0.001028564,1222.231,1215.679,0,99.46784,,
	09/04/2022 04:59:24.657,2.60039e+06,1212.59,419,6,-0.001060084,2.49999,-0.0026502,0.000359066,0.0003569858,0.001180944,0.001025699,1219.407,1212.349,0,99.42068,,
	09/04/2022 06:20:18.137,2.60525e+06,1209.14,421,6,-0.00106008,2.499984,-0.00265018,0.0003579464,0.0003559747,0.001177274,0.001022779,1215.598,1208.884,0,99.44914,,
	09/04/2022 07:40:57.842,2.61009e+06,1205.29,423,6,-0.001060043,2.499988,-0.00265009,0.0003569846,0.0003548256,0.001174092,0.001019457,1212.346,1205.042,0,99.39523,,
	09/04/2022 09:01:08.988,2614896.289,1196.75,425,6,-0.001059964,2.49998,-0.00264989,0.0003545807,0.0003523139,0.001166274,0.001012003,1204.102,1196.557,0,99.36069,,
	09/04/2022 10:20:50.357,2.61968e+06,1190.23,427,6,-0.001059927,2.49998,-0.0026498,0.0003524813,0.0003503808,0.001159415,0.001006307,1197.191,1190.038,0,99.40408,,
	09/04/2022 11:40:09.869,2.62444e+06,1185.32,429,6,-0.001060003,2.499997,-0.00265,0.0003509164,0.000348929,0.001154288,0.001002058,1191.894,1185.133,0,99.43364,,
	09/04/2022 12:59:10.822,2629178.123,1180.67,431,6,-0.001059907,2.499995,-0.00264976,0.000349568,0.0003475602,0.001149875,0.0009980743,1187.314,1180.494,0,99.42563,,
	09/04/2022 14:17:53.182,2.6339e+06,1175.474,433,6,-0.001059912,2.499995,-0.00264977,0.000348246,0.0003460322,0.001145544,0.0009936249,1182.852,1175.29,0,99.36427,,
	09/04/2022 15:36:14.660,2.6386e+06,1170.67,435,6,-0.001059906,2.49998,-0.00264974,0.0003466383,0.0003446065,0.00114027,0.0009894845,1177.382,1170.492,0,99.41386,,
	09/04/2022 16:54:17.587,2643284.888,1166.06,437,6,-0.001059885,2.499988,-0.0026497,0.0003452546,0.0003432595,0.001135741,0.0009855458,1172.698,1165.897,0,99.42214,,
	09/04/2022 18:12:02.684,2.64795e+06,1161.73,439,6,-0.001059825,2.499997,-0.00264956,0.0003439525,0.000341975,0.001131469,0.0009818078,1168.238,1161.558,0,99.42507,,
	09/04/2022 19:29:30.483,2.6526e+06,1157.45,441,6,-0.001059864,2.499999,-0.00264966,0.0003427019,0.0003407071,0.001127359,0.0009781098,1163.952,1157.271,0,99.41794,,
	09/04/2022 20:46:38.504,2657225.805,1152.24,443,6,-0.001059871,2.499991,-0.00264967,0.0003411771,0.0003391771,0.001122365,0.0009736409,1158.783,1152.052,0,99.4138,,
	09/04/2022 22:03:31.061,2.66184e+06,1148.98,445,6,-0.001059885,2.499991,-0.0026497,0.0003401979,0.0003382278,0.001119139,0.0009708974,1155.514,1148.811,0,99.42087,,
	09/04/2022 23:20:11.797,2.66644e+06,1146.53,447,6,-0.001059943,2.499984,-0.00264984,0.0003393338,0.0003375223,0.001116295,0.0009688747,1152.596,1146.363,0,99.46616,,
	09/05/2022 00:36:44.102,2.67103e+06,1144.33,449,6,-0.001059962,2.499995,-0.0026499,0.0003387161,0.0003368841,0.001114234,0.0009670567,1150.405,1144.155,0,99.45914,,
	09/05/2022 01:53:06.358,2.67561e+06,1141.894,451,6,-0.001060017,2.499995,-0.00265004,0.0003380504,0.0003361782,0.001112043,0.0009650573,1147.974,1141.717,0,99.44619,,
	09/05/2022 03:09:21.372,2.68019e+06,1140.06,453,6,-0.001060029,2.499982,-0.00265005,0.0003375105,0.0003356459,0.001110228,0.0009635553,1146.158,1139.884,0,99.44756,,
	09/05/2022 04:25:32.322,2.68476e+06,1139.39,455,6,-0.001060048,2.49999,-0.00265011,0.00033728,0.0003354439,0.001109442,0.0009630412,1145.388,1139.215,0,99.45561,,
	09/05/2022 05:41:40.916,2.68933e+06,1139.03,457,6,-0.001060098,2.499993,-0.00265024,0.000337082,0.0003353502,0.001108745,0.0009628233,1144.752,1138.855,0,99.48624,,
	09/05/2022 06:57:45.520,2.69389e+06,1137.45,459,6,-0.001060085,2.499997,-0.00265021,0.0003367916,0.00033488,0.001107765,0.0009615033,1143.754,1137.265,0,99.4324,,
	09/05/2022 08:13:38.572,2.69845e+06,1133.01,461,6,-0.001059955,2.499999,-0.00264989,0.0003357501,0.0003335618,0.001104308,0.0009576723,1140.208,1132.835,0,99.34824,,
	09/05/2022 09:28:54.691,2.70296e+06,1122.86,463,6,-0.001059973,2.499999,-0.00264993,0.0003326469,0.0003305602,0.001094206,0.0009487731,1129.62,1122.69,0,99.3727,,
	09/05/2022 10:43:38.434,2.70745e+06,1116.35,465,6,-0.001059899,2.499997,-0.00264974,0.0003305334,0.000328628,0.001087335,0.0009431152,1122.484,1116.181,0,99.42353,,
	09/05/2022 11:58:03.433,2.71191e+06,1111.97,467,6,-0.001059959,2.499997,-0.00264989,0.0003292061,0.000327342,0.001082981,0.0009393529,1118.192,1111.795,0,99.43377,,
	09/05/2022 13:12:14.342,2.71636e+06,1108.63,469,6,-0.00105987,2.499986,-0.00264966,0.0003282504,0.000326347,0.001079826,0.0009364479,1114.95,1108.459,0,99.42012,,
	09/05/2022 14:26:08.469,2.7208e+06,1104.498,471,6,-0.001059912,2.499986,-0.00264977,0.0003269493,0.0003251419,0.001075582,0.0009329249,1110.484,1104.328,0,99.4472,,
	09/05/2022 15:39:48.375,2.72522e+06,1100.94,473,6,-0.001059946,2.499999,-0.00264986,0.0003259302,0.0003240949,0.001072229,0.0009298995,1106.9,1100.767,0,99.4369,,
	09/05/2022 16:53:17.484,2.72962e+06,1099.01,475,6,-0.001059999,2.499986,-0.00264998,0.0003253474,0.0003235436,0.001070302,0.0009283652,1104.824,1098.845,0,99.44556,,
	09/05/2022 18:06:43.022,2.73403e+06,1099.63,477,6,-0.001060087,2.499984,-0.0026502,0.0003250884,0.0003237433,0.001069415,0.0009290075,1103.974,1099.462,0,99.58621,,
	09/05/2022 19:21:15.892,2738503.193,1126.09,479,6,-0.001059971,2.499997,-0.00264992,0.0003319258,0.0003314915,0.001091762,0.0009521844,1127.425,1125.919,0,99.86916,,
	09/05/2022 20:38:07.570,2.74311e+06,1158.24,481,6,-0.001059996,2.499988,-0.00264998,0.0003422891,0.0003409866,0.00112556,0.0009805914,1162.366,1158.072,0,99.61948,,
	09/05/2022 21:56:27.980,2.74782e+06,1176.08,483,6,-0.001060036,2.49997,-0.00265006,0.0003480677,0.0003462506,0.001144212,0.0009964069,1182.062,1175.89,0,99.47795,,
	09/05/2022 23:15:43.092,2.75257e+06,1187.75,485,6,-0.001060064,2.499999,-0.00265016,0.0003517316,0.0003496897,0.001155927,0.001006737,1194.536,1187.555,0,99.41946,,
	09/06/2022 00:35:17.047,2.75734e+06,1189.74,487,6,-0.001060067,2.499995,-0.00265016,0.0003525973,0.0003502748,0.001158497,0.001008576,1197.479,1189.557,0,99.34131,,
	09/06/2022 01:54:50.621,2762117.922,1189.39,489,6,-0.001060029,2.499999,-0.00265007,0.0003523891,0.0003501675,0.001157644,0.001008328,1196.772,1189.209,0,99.36957,,
	09/06/2022 03:14:17.061,2766884.362,1187.26,491,6,-0.001060052,2.499986,-0.00265012,0.0003517336,0.0003495431,0.001155361,0.001006546,1194.533,1187.074,0,99.37723,,
	09/06/2022 04:33:38.260,2771645.561,1186.41,493,6,-0.001060029,2.499999,-0.00265007,0.0003514904,0.0003492794,0.001154477,0.001005867,1193.734,1186.223,0,99.37097,,
	09/06/2022 05:52:56.221,2.7764e+06,1185.37,495,6,-0.001060011,2.499999,-0.00265003,0.0003512176,0.0003489913,0.001153506,0.001005071,1192.83,1185.189,0,99.36611,,
	09/06/2022 07:12:06.824,2.78115e+06,1182.78,497,6,-0.001060022,2.499997,-0.00265005,0.0003505287,0.0003482268,0.00115116,0.001002885,1190.452,1182.596,0,99.3433,,
	09/06/2022 08:31:09.095,2.7859e+06,1182.16,499,6,-0.001060094,2.49999,-0.00265022,0.0003501349,0.0003480521,0.001149833,0.001002454,1189.174,1181.975,0,99.40515,,
	09/06/2022 09:49:45.347,2.79061e+06,1167.62,501,6,-0.001059831,2.499999,-0.00264958,0.0003471583,0.0003437079,0.001139995,0.0009895443,1178.921,1167.445,0,99.00612,,
	09/06/2022 11:06:17.767,2.79521e+06,1134.58,503,6,-0.001060148,2.499984,-0.00265035,0.0003371158,0.0003340536,0.001107486,0.0009606249,1144.985,1134.409,0,99.09167,,