File: Cell-test-data/SiMP-LFP-PFOS3/JB9_SiMPs-LFP-PDF3_GF260_Channel_64_StatisticByStep.CSV
Date_Time                    ,Test Time (s),Step Time (s),Cycle Index,Step Index,Current (A),Voltage (V),Power (W),Charge Capacity (Ah),Discharge Capacity (Ah),Charge Energy (Wh),Discharge Energy (Wh),Charge Time (s),Discharge Time (s),V_Max_On_Cycle (V),Coulombic Efficiency (%),mAh/g
	05/15/2022 03:15:13.950,43200,43200,1.00,1.00,0,0.2892427,0,0,0,0,0,0,0,0,0,,
	05/16/2022 17:14:14.122,179940,62189.3,1.00,3.00,-0.0001590168,2.499997,-0.000397542,0.003292293,0.002746372,0.01084747,0.008155276,74539,62178.73,0,83.41821,,
	05/18/2022 03:33:05.096,303471,60551.3,2.00,3.00,-0.0001590085,2.499988,-0.000397519,0.002781278,0.002673864,0.008979838,0.007907869,62968.55,60540.82,0,96.13796,,
	05/19/2022 13:01:04.081,423950,59283.4,3.00,3.00,-0.0001590009,2.499995,-0.000397501,0.002702217,0.002617827,0.008690478,0.007719201,61184.75,59272.79,0,96.87703,,
	05/19/2022 17:31:09.001,440155,7867.94,4.00,6.00,-0.00106012,2.499993,-0.00265029,0.002454286,0.002316494,0.007994238,0.006719722,8335.339,7866.547,0,94.38567,,
	05/19/2022 21:50:04.927,455691,7688.19,5.00,6.00,-0.001060134,2.499991,-0.00265033,0.002310268,0.00226356,0.007505594,0.00655751,7846.125,7686.818,0,97.97826,,
	05/20/2022 02:05:29.360,471015,7590.48,6.00,6.00,-0.001059918,2.499997,-0.00264979,0.002276798,0.002234322,0.007394289,0.006470569,7732.542,7589.056,0,98.13435,,
	05/20/2022 06:18:02.444,486168,7504.5,7.00,6.00,-0.001059895,2.499999,-0.00264974,0.002251594,0.002209117,0.007310962,0.0063961,7647.158,7503.116,0,98.11344,,
	05/20/2022 10:27:32.032,501138,7412.72,8.00,6.00,-0.001060183,2.499999,-0.00265046,0.00222453,0.002182104,0.007222212,0.006316585,7555.429,7411.51,0,98.09283,,
	05/20/2022 14:33:54.937,515921,7321.66,9.00,6.00,-0.001060102,2.499982,-0.00265024,0.002196522,0.002155628,0.007130981,0.006239075,7459.821,7320.369,0,98.13823,,
	05/20/2022 18:37:58.753,530565,7253.32,10.00,6.00,-0.001060097,2.499999,-0.00265024,0.002175741,0.002135533,0.007061519,0.006183414,7389.096,7252.037,0,98.152,,
	05/20/2022 22:39:17.082,545043,7171.29,11.00,6.00,-0.001060104,2.499978,-0.00265024,0.002151089,0.002111395,0.00698088,0.006113085,7305.579,7169.996,0,98.1547,,
	05/21/2022 02:37:18.501,559325,7070.84,12.00,6.00,-0.001060155,2.499993,-0.00265038,0.002122769,0.00208155,0.006889806,0.006024388,7209.422,7069.632,0,98.05822,,
	05/21/2022 06:32:20.102,573426,6988.17,13.00,6.00,-0.001060144,2.49998,-0.00265034,0.002094111,0.002057366,0.006798369,0.005954064,7112.009,6986.926,0,98.24533,,
	05/21/2022 10:24:55.167,587381,6915.16,14.00,6.00,-0.00105987,2.499984,-0.00264966,0.002072452,0.002035557,0.006728142,0.00589168,7038.795,6913.866,0,98.21973,,
	05/21/2022 14:14:58.247,601184,6841.96,15.00,6.00,-0.001060129,2.499997,-0.00265032,0.002049265,0.002014328,0.006653241,0.005831237,6959.945,6840.683,0,98.29515,,
	05/21/2022 18:03:01.971,614868,6780.55,16.00,6.00,-0.001060073,2.499995,-0.00265018,0.002032172,0.001996334,0.006596466,0.005781256,6901.767,6779.321,0,98.23646,,
	05/21/2022 21:48:15.912,628382,6696.79,17.00,6.00,-0.001059856,2.499995,-0.00264963,0.002006864,0.001971311,0.006515447,0.005707256,6815.956,6695.492,0,98.22844,,
	05/22/2022 01:31:08.913,641755,6630.58,18.00,6.00,-0.001059916,2.499997,-0.00264979,0.001984804,0.001951825,0.006444734,0.005651562,6741.131,6629.408,0,98.33842,,
	05/22/2022 05:11:45.355,654991,6561.94,19.00,6.00,-0.001059972,2.499999,-0.00264993,0.001964773,0.00193166,0.006379601,0.005593894,6673.193,6560.865,0,98.31465,,
	05/22/2022 08:50:14.066,668100,6499.6,20.00,6.00,-0.001060025,2.499999,-0.00265006,0.001945501,0.001913343,0.006317561,0.005541425,6607.847,6498.302,0,98.34707,,
	05/22/2022 12:26:34.316,681080,6436.88,21.00,6.00,-0.001059877,2.499999,-0.00264969,0.001926147,0.001894806,0.006255112,0.00548806,6542.128,6435.867,0,98.37285,,
	05/22/2022 16:01:00.956,693947,6383.13,22.00,6.00,-0.001059824,2.499972,-0.00264953,0.00190866,0.001879314,0.006198709,0.005444925,6482.365,6381.871,0,98.46246,,
	05/22/2022 19:33:45.952,706712,6328.73,23.00,6.00,-0.001059866,2.499991,-0.00264966,0.001894731,0.001863256,0.006152382,0.005399302,6435.063,6327.692,0,98.33884,,
	05/22/2022 23:04:16.103,719342,6265.09,24.00,6.00,-0.001059883,2.499999,-0.00264971,0.001873769,0.001844178,0.006085793,0.005343369,6363.953,6263.934,0,98.42079,,
	05/23/2022 02:32:50.347,731856,6207.86,25.00,6.00,-0.001059975,2.499997,-0.00264993,0.001856466,0.001827442,0.006030119,0.005295388,6305.284,6206.874,0,98.43658,,
	05/23/2022 05:59:38.560,744265,6156.24,26.00,6.00,-0.001059934,2.499997,-0.00264983,0.001840371,0.001812182,0.005977968,0.005251846,6250.73,6155.049,0,98.46832,,
	05/23/2022 09:24:35.878,756562,6100.94,27.00,6.00,-0.00105989,2.499991,-0.00264972,0.001824078,0.001795874,0.005925246,0.005204991,6195.326,6099.826,0,98.45377,,
	05/23/2022 12:47:50.276,768756,6051.45,28.00,6.00,-0.001060164,2.499988,-0.0026504,0.001808384,0.001781673,0.005874906,0.005164396,6141.76,6050.309,0,98.52293,,
	05/23/2022 16:09:22.083,780848,5998.42,29.00,6.00,-0.001059855,2.499974,-0.00264961,0.001793753,0.001765683,0.005827546,0.005118744,6092.232,5997.355,0,98.43513,,
	05/23/2022 19:29:17.421,792843,5954.24,30.00,6.00,-0.001059895,2.499988,-0.00264972,0.001778352,0.001752838,0.005777853,0.005081586,6039.864,5953.141,0,98.56531,,
	05/23/2022 22:47:35.577,804742,5905.62,31.00,6.00,-0.001059891,2.499999,-0.00264973,0.001764034,0.001738353,0.00573147,0.005040122,5991.242,5904.521,0,98.5442,,
	05/24/2022 02:04:25.919,816552,5863.56,32.00,6.00,-0.001059886,2.499991,-0.00264971,0.00175062,0.001726115,0.005688272,0.00500469,5945.664,5862.473,0,98.60022,,
	05/24/2022 05:19:45.359,828271,5816.24,33.00,6.00,-0.001059847,2.499995,-0.00264961,0.001737781,0.001712225,0.005646802,0.004965067,5902.05,5815.174,0,98.52937,,
	05/24/2022 08:33:35.827,839902,5773.64,34.00,6.00,-0.00105989,2.499995,-0.00264972,0.001724126,0.001699756,0.005602612,0.004929211,5855.696,5772.64,0,98.58652,,
	05/24/2022 11:46:03.672,851450,5731.35,35.00,6.00,-0.001059851,2.49999,-0.00264962,0.001712261,0.001687102,0.005564144,0.004893274,5815.505,5730.354,0,98.53067,,
	05/24/2022 14:57:01.279,862907,5690.18,36.00,6.00,-0.001059955,2.49999,-0.00264988,0.001697803,0.001674958,0.005517486,0.004858234,5766.298,5689.087,0,98.65443,,
	05/24/2022 18:06:40.452,874287,5646.69,37.00,6.00,-0.001059911,2.499997,-0.00264977,0.001687529,0.001662145,0.005484164,0.004821553,5731.418,5645.605,0,98.49578,,
	05/24/2022 21:14:48.857,885575,5603.32,38.00,6.00,-0.001059897,2.499999,-0.00264974,0.001673586,0.001649416,0.005439238,0.004785079,5684.051,5602.248,0,98.55579,,
	05/25/2022 00:21:29.743,896776,5560.55,39.00,6.00,-0.001060079,2.499997,-0.00265019,0.001660395,0.001637084,0.005396614,0.004749571,5639.128,5559.568,0,98.59606,,
	05/25/2022 03:27:14.463,907921,5537.23,40.00,6.00,-0.001060059,2.499982,-0.00265013,0.00165081,0.001630202,0.005365452,0.004731673,5606.396,5536.167,0,98.75163,,
	05/25/2022 06:32:20.002,919026,5514.07,41.00,6.00,-0.001060031,2.499995,-0.00265007,0.00164611,0.001623329,0.00534849,0.004713957,5590.262,5513.018,0,98.61604,,
	05/25/2022 09:36:11.481,930058,5474.05,42.00,6.00,-0.001059835,2.499997,-0.00264958,0.001636049,0.001611507,0.005315178,0.004679372,5556.269,5472.956,0,98.49995,,
	05/25/2022 12:37:45.685,940952,5407.89,43.00,6.00,-0.001059869,2.499991,-0.00264966,0.001615011,0.001591861,0.00524984,0.004619712,5485.089,5406.843,0,98.56662,,
	05/25/2022 15:38:02.507,951769,5372.54,44.00,6.00,-0.001059914,2.49999,-0.00264977,0.001602663,0.001581496,0.00520987,0.004589881,5443.209,5371.479,0,98.67924,,
	05/25/2022 18:37:09.828,962516,5338.72,45.00,6.00,-0.001059867,2.499991,-0.00264966,0.001592116,0.001571515,0.005175504,0.004561187,5407.347,5337.72,0,98.70607,,
	05/25/2022 21:35:03.614,973190,5298.86,46.00,6.00,-0.001059899,2.499988,-0.00264973,0.001582283,0.001559718,0.005143753,0.004527146,5373.86,5297.609,0,98.57387,,
	05/26/2022 00:31:47.002,983793,5266.07,47.00,6.00,-0.001059875,2.499993,-0.00264968,0.001571083,0.001550158,0.005107564,0.004499725,5335.959,5265.058,0,98.66817,,
	05/26/2022 03:27:18.601,994325,5230.07,48.00,6.00,-0.001059965,2.499991,-0.0026499,0.001560713,0.001539615,0.005074079,0.004469343,5300.694,5229.156,0,98.64819,,
	05/26/2022 06:21:40.475,1.00479e+06,5196.2,49.00,6.00,-0.001059942,2.499982,-0.00264984,0.001550025,0.00152967,0.005039516,0.004440652,5264.672,5195.313,0,98.68681,,
	05/26/2022 09:14:58.404,1.01518e+06,5164.98,50.00,6.00,-0.001059927,2.499999,-0.00264982,0.001540407,0.001520447,0.005008392,0.004414427,5232.008,5164.122,0,98.70425,,
	05/26/2022 12:07:11.033,1.02552e+06,5131.19,51.00,6.00,-0.001059995,2.499991,-0.00264998,0.001531142,0.001510521,0.004978487,0.004385819,5200.528,5130.326,0,98.65321,,
	05/26/2022 14:58:14.598,1.03578e+06,5097.42,52.00,6.00,-0.001059947,2.49999,-0.00264986,0.001520734,0.001500611,0.004944805,0.004356756,5165.234,5096.652,0,98.67673,,
	05/26/2022 17:48:10.363,1.04598e+06,5064.61,53.00,6.00,-0.001059983,2.499997,-0.00264995,0.001510434,0.001490966,0.004911561,0.004328995,5130.271,5063.773,0,98.71112,,
	05/26/2022 20:37:01.784,1.05611e+06,5030.06,54.00,6.00,-0.001059904,2.499988,-0.00264975,0.001501668,0.001480611,0.004882939,0.004299358,5100.394,5028.975,0,98.59772,,
	05/26/2022 23:24:41.416,1.06617e+06,4997.04,55.00,6.00,-0.001059904,2.499991,-0.00264975,0.001490382,0.001470979,0.004846534,0.004271463,5061.818,4996.254,0,98.69813,,
	05/27/2022 02:11:16.839,1.07616e+06,4963.7,56.00,6.00,-0.001059997,2.499997,-0.00264999,0.001481171,0.001461282,0.004816748,0.004243494,5030.843,4962.836,0,98.65722,,
	05/27/2022 04:56:47.967,1.08609e+06,4932.33,57.00,6.00,-0.001059958,2.499999,-0.00264989,0.001471463,0.001452047,0.004785316,0.004217001,4997.97,4931.544,0,98.68049,,
	05/27/2022 07:41:17.544,1.09596e+06,4902.24,58.00,6.00,-0.001059979,2.499999,-0.00264995,0.001462178,0.001443206,0.004755159,0.004191471,4966.474,4901.411,0,98.70248,,
	05/27/2022 10:24:44.677,1.10577e+06,4870.58,59.00,6.00,-0.001059981,2.499997,-0.00264995,0.001453144,0.001433839,0.004726113,0.004164374,4935.708,4869.667,0,98.67146,,
	05/27/2022 13:07:07.334,1.11551e+06,4840.5,60.00,6.00,-0.001059884,2.499995,-0.0026497,0.001442984,0.001424924,0.004693289,0.004138452,4901.287,4839.7,0,98.74845,,
	05/27/2022 15:48:32.168,1.1252e+06,4811.34,61.00,6.00,-0.001059847,2.499997,-0.00264961,0.001434685,0.001416288,0.00466633,0.004113619,4872.676,4810.599,0,98.71773,,
	05/27/2022 18:28:58.567,1.13482e+06,4782.07,62.00,6.00,-0.001060027,2.499999,-0.00265007,0.001426133,0.001407726,0.004638624,0.004088833,4843.609,4781.262,0,98.70927,,
	05/27/2022 21:08:22.832,1.14439e+06,4750.3,63.00,6.00,-0.001059927,2.499999,-0.00264982,0.001417055,0.001398451,0.004609345,0.004061797,4813.138,4749.588,0,98.68711,,
	05/27/2022 23:46:46.478,1.15389e+06,4720.54,64.00,6.00,-0.001059975,2.499978,-0.00264991,0.001407938,0.001389688,0.004579724,0.004036513,4782.133,4719.843,0,98.70375,,
	05/28/2022 02:24:10.971,1.16334e+06,4690.5,65.00,6.00,-0.001059981,2.499995,-0.00264995,0.001399401,0.001380811,0.004552205,0.004010948,4753.126,4689.638,0,98.67155,,
	05/28/2022 05:00:35.781,1.17272e+06,4662.98,66.00,6.00,-0.001059976,2.499993,-0.00264993,0.001389895,0.001372694,0.004521384,0.003987262,4720.838,4662.096,0,98.76244,,
	05/28/2022 07:36:04.280,1.18205e+06,4633.2,67.00,6.00,-0.00105988,2.499997,-0.0026497,0.001382148,0.001363898,0.004496348,0.003961861,4694.334,4632.517,0,98.67957,,
	05/28/2022 10:10:36.706,1.19132e+06,4607.83,68.00,6.00,-0.001059894,2.499988,-0.00264972,0.001373129,0.00135633,0.004467038,0.003940239,4663.661,4606.878,0,98.77654,,
	05/28/2022 12:44:18.755,1.20054e+06,4580.72,69.00,6.00,-0.001059964,2.49999,-0.0026499,0.001366282,0.001348448,0.0044448,0.003917421,4640.427,4579.902,0,98.6947,,
	05/28/2022 15:17:04.585,1.20971e+06,4554.75,70.00,6.00,-0.001059956,2.499999,-0.00264989,0.001357412,0.001340795,0.004415961,0.003895173,4610.337,4553.918,0,98.77583,,
	05/28/2022 17:48:59.931,1.21883e+06,4527.44,71.00,6.00,-0.001059921,2.499993,-0.0026498,0.001350567,0.001332739,0.004393936,0.003872001,4587.046,4526.571,0,98.67992,,
	05/28/2022 20:19:57.515,1.22788e+06,4501.04,72.00,6.00,-0.001059941,2.499988,-0.00264984,0.00134127,0.001325001,0.004363592,0.003849328,4555.683,4500.312,0,98.78705,,
	05/28/2022 22:50:02.171,1.23689e+06,4473,73.00,6.00,-0.001059953,2.499986,-0.00264987,0.001333948,0.00131676,0.004340018,0.003825373,4530.832,4472.135,0,98.7115,,
	05/29/2022 01:19:10.101,1.24584e+06,4444.76,74.00,6.00,-0.001059976,2.499997,-0.00264994,0.00132557,0.00130844,0.004312926,0.00380117,4502.249,4443.892,0,98.70766,,
	05/29/2022 03:47:24.053,1.25473e+06,4419.53,75.00,6.00,-0.001059992,2.499974,-0.00264995,0.001317093,0.001301035,0.004285421,0.003779628,4473.652,4418.793,0,98.78079,,
	05/29/2022 06:14:49.788,1.26358e+06,4395.19,76.00,6.00,-0.001059983,2.499986,-0.00264994,0.001310075,0.001293905,0.004262698,0.003758866,4449.753,4394.34,0,98.76569,,
	05/29/2022 08:41:26.831,1.27237e+06,4371.6,77.00,6.00,-0.001059955,2.499988,-0.00264987,0.001302678,0.001286932,0.004238703,0.003738736,4424.528,4370.836,0,98.79126,,
	05/29/2022 11:07:22.804,1.28113e+06,4351.69,78.00,6.00,-0.001059942,2.499993,-0.00264985,0.001296484,0.001280989,0.00421847,0.003721712,4403.542,4350.813,0,98.80483,,
	05/29/2022 13:32:33.476,1.28984e+06,4327.02,79.00,6.00,-0.001060134,2.499984,-0.00265032,0.001290396,0.001273738,0.004198708,0.003700708,4382.717,4326.167,0,98.70912,,
	05/29/2022 15:56:48.367,1.29849e+06,4301.25,80.00,6.00,-0.001059855,2.499991,-0.00264963,0.001281636,0.001266171,0.00417021,0.003678353,4352.787,4300.52,0,98.79336,,
	05/29/2022 18:20:12.997,1.3071e+06,4274.84,81.00,6.00,-0.001060155,2.499991,-0.00265038,0.001274619,0.001258595,0.004147653,0.003656551,4329.108,4274.034,0,98.74286,,
	05/29/2022 20:42:53.919,1.31566e+06,4253.29,82.00,6.00,-0.001060074,2.499993,-0.00265018,0.001268082,0.001252205,0.004126071,0.003638246,4306.817,4252.582,0,98.74799,,
	05/29/2022 23:04:50.395,1.32418e+06,4233.72,83.00,6.00,-0.001059936,2.499999,-0.00264984,0.001260778,0.001246284,0.004102681,0.003620999,4282.012,4233.019,0,98.85033,,
	05/30/2022 01:26:05.870,1.33265e+06,4211.77,84.00,6.00,-0.001059944,2.499988,-0.00264985,0.001255149,0.001239788,0.004084229,0.003602145,4263.012,4210.894,0,98.77621,,
	05/30/2022 03:46:29.887,1.34108e+06,4185,85.00,6.00,-0.001060009,2.499997,-0.00265002,0.001247824,0.00123198,0.004060394,0.00357937,4238.194,4184.31,0,98.73029,,
	05/30/2022 06:06:07.921,1.34945e+06,4163.46,86.00,6.00,-0.00105999,2.499993,-0.00264997,0.001240627,0.001225695,0.004037043,0.003561198,4213.79,4162.903,0,98.79648,,
	05/30/2022 08:25:03.089,1.35779e+06,4143.17,87.00,6.00,-0.001059956,2.499995,-0.00264988,0.001233954,0.001219667,0.004015344,0.003543496,4191.081,4142.373,0,98.84218,,
	05/30/2022 10:43:11.947,1.36608e+06,4118.19,88.00,6.00,-0.001059897,2.499999,-0.00264974,0.001227673,0.001212265,0.003995053,0.003522064,4169.803,4117.427,0,98.745,,
	05/30/2022 13:00:36.567,1.37432e+06,4097.15,89.00,6.00,-0.001060183,2.499967,-0.00265042,0.001220905,0.001206038,0.003973093,0.003503961,4146.679,4096.384,0,98.78231,,
	05/30/2022 15:17:11.122,1.38252e+06,4072.06,90.00,6.00,-0.001060168,2.499999,-0.00265042,0.001213616,0.001198953,0.003949469,0.003483005,4121.696,4071.411,0,98.79174,,
	05/30/2022 17:33:02.371,1.39067e+06,4051.09,91.00,6.00,-0.001059814,2.499999,-0.00264953,0.001207009,0.001192678,0.003928112,0.003464715,4099.291,4050.266,0,98.81264,,
	05/30/2022 19:48:10.908,1.39878e+06,4029.25,92.00,6.00,-0.001060123,2.499995,-0.0026503,0.00120088,0.001186123,0.003908205,0.00344588,4078.537,4028.561,0,98.77116,,
	05/30/2022 22:02:36.476,1.40684e+06,4008.72,93.00,6.00,-0.001059835,2.499997,-0.00264958,0.001194268,0.001180129,0.003886656,0.003428374,4056.052,4007.957,0,98.81616,,
	05/31/2022 00:16:26.726,1.41487e+06,3991.91,94.00,6.00,-0.001059918,2.499993,-0.00264979,0.001188824,0.001175087,0.003868868,0.003413774,4037.581,3991.25,0,98.84447,,
	05/31/2022 02:29:38.893,1.42286e+06,3971.47,95.00,6.00,-0.001059872,2.499995,-0.00264967,0.001183588,0.00116904,0.003851786,0.003396278,4019.975,3970.676,0,98.77081,,
	05/31/2022 04:42:06.088,1.43081e+06,3949.96,96.00,6.00,-0.001059992,2.499991,-0.00264997,0.001176632,0.001162839,0.003829174,0.003378117,3996.358,3949.363,0,98.82775,,
	05/31/2022 06:53:56.971,1.43872e+06,3933.11,97.00,6.00,-0.001059928,2.499986,-0.00264981,0.001170963,0.001157853,0.003810758,0.003363585,3977.056,3932.498,0,98.88035,,
	05/31/2022 09:05:07.619,1.44659e+06,3910.99,98.00,6.00,-0.001059914,2.499991,-0.00264978,0.001165623,0.001151291,0.003793369,0.003344324,3959.032,3910.251,0,98.77039,,
	05/31/2022 11:15:41.670,1.45443e+06,3893.6,99.00,6.00,-0.001060071,2.499974,-0.00265015,0.001159971,0.001146208,0.003775132,0.003329709,3939.791,3892.99,0,98.81354,,
	05/31/2022 13:25:29.334,1.46222e+06,3871.37,100.00,6.00,-0.001059858,2.499997,-0.00264964,0.001152864,0.001139679,0.003752171,0.00331022,3915.508,3870.799,0,98.85635,,
	05/31/2022 15:34:36.994,1.46996e+06,3850.79,101.00,6.00,-0.001060155,2.499993,-0.00265038,0.001147194,0.001133676,0.003733763,0.003292632,3896.18,3850.173,0,98.82165,,
	05/31/2022 17:43:05.984,1.47767e+06,3831.03,102.00,6.00,-0.00106018,2.499991,-0.00265044,0.001141606,0.001127846,0.003715513,0.003275806,3877.264,3830.371,0,98.79462,,
	05/31/2022 19:50:55.830,1.48534e+06,3811.68,103.00,6.00,-0.001060111,2.499997,-0.00265027,0.00113576,0.001122098,0.003696451,0.003259036,3857.383,3811.086,0,98.79715,,
	05/31/2022 21:58:11.784,1.49298e+06,3795.41,104.00,6.00,-0.001059858,2.499993,-0.00264964,0.001130624,0.001117436,0.003679713,0.003245867,3839.906,3794.713,0,98.83352,,
	06/01/2022 00:04:45.506,1.50057e+06,3774.06,105.00,6.00,-0.001059837,2.499997,-0.00264959,0.001124416,0.001110905,0.003659369,0.003226373,3818.872,3773.341,0,98.79839,,
	06/01/2022 02:10:44.791,1.50813e+06,3758.12,106.00,6.00,-0.001059867,2.499988,-0.00264965,0.001118968,0.001106271,0.003641774,0.003212876,3800.49,3757.474,0,98.86526,,
	06/01/2022 04:16:02.417,1.51565e+06,3735.66,107.00,6.00,-0.001060134,2.499997,-0.00265033,0.00111333,0.001099614,0.003623299,0.003193488,3781.224,3734.922,0,98.76808,,
	06/01/2022 06:20:45.223,1.52313e+06,3720.08,108.00,6.00,-0.00105989,2.499993,-0.00264972,0.00110769,0.001095054,0.003605126,0.003180283,3761.934,3719.39,0,98.8593,,
	06/01/2022 08:24:53.425,1.53058e+06,3702.15,109.00,6.00,-0.001059879,2.499986,-0.00264968,0.001102719,0.00108978,0.003588807,0.003164833,3745.24,3701.556,0,98.82661,,
	06/01/2022 10:28:23.629,1.53799e+06,3682.5,110.00,6.00,-0.001060137,2.499995,-0.00265034,0.001097343,0.001084096,0.003571428,0.003148182,3727.098,3681.833,0,98.79285,,
	06/01/2022 12:31:13.602,1.54536e+06,3663.51,111.00,6.00,-0.001060079,2.499993,-0.00265019,0.001091093,0.001078616,0.003551143,0.003132142,3705.715,3662.791,0,98.8565,,
	06/01/2022 14:33:33.359,1.5527e+06,3648.4,112.00,6.00,-0.001059911,2.499997,-0.00264977,0.001086676,0.001073996,0.003536525,0.003118556,3690.681,3647.816,0,98.83316,,
	06/01/2022 16:35:10.339,1.56e+06,3626.18,113.00,6.00,-0.001060141,2.499991,-0.00265034,0.001080622,0.001067642,0.003517145,0.003099822,3670.15,3625.559,0,98.79886,,
	06/01/2022 18:36:12.159,1.56726e+06,3608.47,114.00,6.00,-0.00106021,2.499991,-0.00265052,0.001075504,0.001062372,0.003500334,0.003084635,3652.761,3607.844,0,98.77904,,
	06/01/2022 20:36:33.070,1.57448e+06,3589.4,115.00,6.00,-0.001060083,2.499999,-0.00265021,0.001069024,0.001056747,0.003479391,0.003067822,3630.753,3588.805,0,98.85153,,
	06/01/2022 22:36:23.270,1.58167e+06,3574.47,116.00,6.00,-0.001060179,2.499995,-0.00265044,0.00106443,0.001052347,0.003464518,0.003055402,3615.059,3573.854,0,98.86479,,
	06/02/2022 00:35:39.730,1.58883e+06,3556.19,117.00,6.00,-0.00106016,2.49999,-0.00265039,0.001059875,0.001046954,0.00344952,0.003039477,3599.612,3555.609,0,98.7809,,
	06/02/2022 02:34:20.983,1.59595e+06,3540.68,118.00,6.00,-0.001059911,2.499984,-0.00264976,0.001054006,0.001042358,0.003430443,0.003025876,3579.843,3540.07,0,98.89489,,
	06/02/2022 04:32:33.608,1.60304e+06,3525.5,119.00,6.00,-0.001059866,2.499995,-0.00264966,0.001050051,0.001037816,0.003417521,0.003012788,3566.446,3525.004,0,98.83482,,
	06/02/2022 06:30:10.654,1.6101e+06,3508.79,120.00,6.00,-0.001059965,2.49999,-0.0026499,0.001044494,0.001032868,0.003399368,0.002998102,3547.568,3508.109,0,98.88692,,
	06/02/2022 08:27:14.208,1.61712e+06,3490.94,121.00,6.00,-0.001059941,2.499982,-0.00264983,0.00103989,0.001027662,0.003384356,0.002982888,3531.878,3490.348,0,98.82416,,
	06/02/2022 10:23:42.410,1.62411e+06,3472.43,122.00,6.00,-0.001059918,2.499993,-0.00264979,0.001034916,0.001022188,0.003368195,0.002966925,3515.09,3471.8,0,98.77013,,
	06/02/2022 12:19:33.398,1.63106e+06,3455.15,123.00,6.00,-0.001059872,2.499993,-0.00264967,0.001029037,0.001017079,0.003349104,0.002951953,3495.147,3454.473,0,98.83789,,
	06/02/2022 14:14:52.336,1.63798e+06,3440.05,124.00,6.00,-0.001059828,2.499984,-0.00264955,0.001024067,0.001012578,0.003332846,0.002938627,3478.149,3439.343,0,98.87807,,
	06/02/2022 16:09:35.674,1.64486e+06,3420.34,125.00,6.00,-0.001059886,2.499986,-0.0026497,0.001019464,0.001007024,0.003317845,0.002922388,3462.303,3419.806,0,98.77973,,
	06/02/2022 18:03:48.000,1.65171e+06,3404.32,126.00,6.00,-0.001060171,2.499984,-0.00265041,0.001015052,0.001002248,0.003303373,0.002908699,3447.441,3403.756,0,98.73858,,
	06/02/2022 19:57:18.561,1.65852e+06,3385.62,127.00,6.00,-0.001059852,2.499999,-0.00264963,0.001008213,0.0009966698,0.003281321,0.002891926,3424.303,3385.001,0,98.85503,,
	06/02/2022 21:50:17.264,1.6653e+06,3369.42,128.00,6.00,-0.00105989,2.49999,-0.00264971,0.001003625,0.0009918213,0.003266447,0.002877853,3408.7,3368.803,0,98.82391,,
	06/02/2022 23:42:44.890,1.67205e+06,3353.85,129.00,6.00,-0.001059932,2.499995,-0.00264982,0.0009990382,0.0009873098,0.003251288,0.002864832,3393.108,3353.336,0,98.82603,,
	06/03/2022 01:34:40.922,1.67877e+06,3337.77,130.00,6.00,-0.001059919,2.499999,-0.0026498,0.0009944604,0.0009825549,0.003236448,0.002850857,3377.644,3337.177,0,98.80281,,
	06/03/2022 03:26:02.112,1.68545e+06,3320.84,131.00,6.00,-0.001059933,2.499995,-0.00264983,0.0009891556,0.0009775384,0.003219083,0.002836183,3359.765,3320.213,0,98.82554,,
	06/03/2022 05:16:54.463,1.6921e+06,3306.17,132.00,6.00,-0.001059902,2.499993,-0.00264975,0.0009849978,0.0009732927,0.00320566,0.002823705,3345.561,3305.617,0,98.81165,,
	06/03/2022 07:07:11.503,1.69872e+06,3287.99,133.00,6.00,-0.001059958,2.499988,-0.00264988,0.0009799547,0.0009679595,0.003189225,0.002808095,3328.432,3287.469,0,98.77595,,
	06/03/2022 08:56:56.109,1.7053e+06,3273.17,134.00,6.00,-0.001059961,2.499988,-0.00264989,0.0009747617,0.0009635483,0.003172318,0.002795162,3310.843,3272.531,0,98.84962,,
	06/03/2022 10:46:06.623,1.71185e+06,3255.03,135.00,6.00,-0.001059916,2.49999,-0.00264978,0.0009700476,0.0009581849,0.003156925,0.002779486,3294.794,3254.434,0,98.7771,,
	06/03/2022 12:34:40.963,1.71837e+06,3236.57,136.00,6.00,-0.001059932,2.499997,-0.00264983,0.0009648528,0.0009527833,0.003140038,0.002763677,3277.102,3236.024,0,98.74908,,
	06/03/2022 14:22:37.760,1.72484e+06,3218.65,137.00,6.00,-0.001059883,2.499995,-0.0026497,0.0009591127,0.0009474659,0.003121334,0.002748113,3257.564,3218.107,0,98.78568,,
	06/03/2022 16:10:01.904,1.73129e+06,3202.85,138.00,6.00,-0.001059877,2.499997,-0.00264969,0.0009541658,0.0009428076,0.003105386,0.002734344,3240.703,3202.261,0,98.80962,,
	06/03/2022 17:56:52.004,1.7377e+06,3184.74,139.00,6.00,-0.001059865,2.499997,-0.00264966,0.000949434,0.0009375064,0.003089955,0.002718853,3224.673,3184.187,0,98.74371,,
	06/03/2022 19:43:09.445,1.74408e+06,3169.44,140.00,6.00,-0.00105988,2.499997,-0.0026497,0.0009443421,0.0009329767,0.003073384,0.002705731,3207.434,3168.866,0,98.79648,,
	06/03/2022 21:28:57.123,1.75042e+06,3155.08,141.00,6.00,-0.001060002,2.499997,-0.00265,0.0009397737,0.0009288273,0.003058454,0.002693601,3191.976,3154.526,0,98.83521,,
	06/03/2022 23:14:15.307,1.75674e+06,3140.25,142.00,6.00,-0.001060039,2.499976,-0.00265007,0.0009354237,0.0009244503,0.003044263,0.002680808,3177.213,3139.687,0,98.8269,,
	06/04/2022 00:58:59.407,1.76303e+06,3123.18,143.00,6.00,-0.001059969,2.499999,-0.00264992,0.000930449,0.0009194022,0.003028024,0.002665991,3160.285,3122.589,0,98.81275,,
	06/04/2022 02:43:15.785,1.76928e+06,3109.26,144.00,6.00,-0.00105997,2.499991,-0.00264992,0.0009263721,0.0009153036,0.003014839,0.002653947,3146.519,3108.64,0,98.80518,,
	06/04/2022 04:26:57.633,1.7755e+06,3090.83,145.00,6.00,-0.001060039,2.49998,-0.00265008,0.0009216501,0.000909925,0.002999366,0.002638249,3130.398,3090.304,0,98.72782,,
	06/04/2022 06:10:07.427,1.78169e+06,3076.95,146.00,6.00,-0.00106002,2.499976,-0.00265002,0.0009163207,0.0009058315,0.002982073,0.002626237,3112.261,3076.429,0,98.8553,,
	06/04/2022 07:52:42.680,1.78785e+06,3057.21,147.00,6.00,-0.001059947,2.499986,-0.00264985,0.0009119047,0.0008999805,0.002967596,0.002609126,3097.385,3056.655,0,98.69239,,
	06/04/2022 09:34:41.986,1.79397e+06,3041.3,148.00,6.00,-0.001059922,2.499995,-0.0026498,0.0009060325,0.0008952888,0.002948544,0.002595249,3077.393,3040.725,0,98.8142,,
	06/04/2022 11:16:11.270,1.80006e+06,3026.3,149.00,6.00,-0.001059972,2.499999,-0.00264993,0.000901613,0.0008908616,0.002934183,0.002582283,3062.365,3025.647,0,98.80753,,
	06/04/2022 12:57:09.210,1.80612e+06,3008.85,150.00,6.00,-0.0010599,2.49999,-0.00264974,0.0008975337,0.0008857083,0.002920923,0.00256734,3048.429,3008.306,0,98.68245,,
	06/04/2022 14:37:28.365,1.81213e+06,2991.35,151.00,6.00,-0.001059852,2.499986,-0.00264962,0.0008913093,0.0008806399,0.002900581,0.002552361,3027.298,2990.893,0,98.80294,,
	06/04/2022 16:17:11.673,1.81812e+06,2971.97,152.00,6.00,-0.001059872,2.499993,-0.00264967,0.0008864577,0.0008748526,0.002884921,0.002535386,3010.754,2971.457,0,98.69085,,
	06/04/2022 17:56:23.094,1.82407e+06,2958.38,153.00,6.00,-0.001059856,2.499997,-0.00264964,0.0008810894,0.0008708941,0.002867521,0.002523688,2992.437,2957.931,0,98.84287,,
	06/04/2022 19:35:04.673,1.82999e+06,2941.3,154.00,6.00,-0.001060151,2.49999,-0.00265037,0.0008773195,0.000865886,0.002855173,0.002509153,2979.739,2940.756,0,98.69676,,
	06/04/2022 21:13:12.317,1.83588e+06,2926.1,155.00,6.00,-0.00105986,2.499993,-0.00264964,0.0008718304,0.0008613329,0.002837323,0.002495866,2961.006,2925.615,0,98.79591,,
	06/04/2022 22:50:51.785,1.84174e+06,2911.24,156.00,6.00,-0.001059849,2.499993,-0.00264962,0.0008678708,0.0008569578,0.002824393,0.002483072,2947.542,2910.642,0,98.74256,,
	06/05/2022 00:27:54.992,1.84756e+06,2893.01,157.00,6.00,-0.001060155,2.499991,-0.00265038,0.0008625526,0.0008517021,0.002807131,0.00246762,2929.553,2892.472,0,98.74204,,
	06/05/2022 02:04:25.699,1.85335e+06,2876.9,158.00,6.00,-0.001059847,2.49999,-0.00264961,0.000857788,0.0008469143,0.002791591,0.00245368,2913.318,2876.445,0,98.73235,,
	06/05/2022 03:40:22.489,1.85911e+06,2860.22,159.00,6.00,-0.001059861,2.499986,-0.00264964,0.0008526638,0.00084204,0.002774782,0.002439483,2895.936,2859.808,0,98.75405,,
	06/05/2022 05:15:46.610,1.86483e+06,2843.51,160.00,6.00,-0.001060129,2.49998,-0.0026503,0.0008479492,0.0008370691,0.002759526,0.002424799,2879.981,2842.914,0,98.7169,,
	06/05/2022 06:50:40.100,1.87053e+06,2828.43,161.00,6.00,-0.001059886,2.499995,-0.00264971,0.0008434107,0.000832613,0.002744784,0.002411909,2864.51,2828.027,0,98.71976,,
	06/05/2022 08:25:03.133,1.87619e+06,2814.37,162.00,6.00,-0.001059908,2.49999,-0.00264976,0.0008385755,0.0008284095,0.002729009,0.002399636,2848.142,2813.826,0,98.78769,,
	06/05/2022 09:58:56.415,1.88182e+06,2798.72,163.00,6.00,-0.00106018,2.49998,-0.00265043,0.0008344157,0.0008238199,0.002715344,0.002386264,2834.027,2798.188,0,98.73015,,
	06/05/2022 11:32:13.309,1.88742e+06,2779.5,164.00,6.00,-0.001060176,2.499997,-0.00265044,0.0008293893,0.0008182445,0.002699034,0.002369973,2816.823,2779.019,0,98.65627,,
	06/05/2022 13:04:55.694,1.89298e+06,2763.43,165.00,6.00,-0.001059841,2.499997,-0.0026496,0.0008239503,0.0008134908,0.002681392,0.002356027,2798.51,2762.968,0,98.73056,,
	06/05/2022 14:37:03.443,1.89851e+06,2745.29,166.00,6.00,-0.001060135,2.499997,-0.00265033,0.0008190884,0.0008082661,0.002665606,0.002340688,2781.887,2744.762,0,98.67873,,
	06/05/2022 16:08:36.428,1.904e+06,2728.27,167.00,6.00,-0.001060095,2.499997,-0.00265023,0.0008138522,0.0008031597,0.002648622,0.00232582,2764.135,2727.741,0,98.68618,,
	06/05/2022 17:39:41.427,1.90947e+06,2714.71,168.00,6.00,-0.001060152,2.499988,-0.00265037,0.0008096369,0.0007992937,0.002634679,0.002314838,2749.794,2714.255,0,98.7225,,
	06/05/2022 19:10:17.974,1.9149e+06,2700.62,169.00,6.00,-0.001059837,2.499999,-0.00264959,0.0008054218,0.0007949759,0.002620764,0.00230234,2735.453,2700.266,0,98.70305,,
	06/05/2022 20:40:21.620,1.92031e+06,2684.91,170.00,6.00,-0.001059891,2.499995,-0.00264972,0.0008003269,0.0007903309,0.002604448,0.002288471,2718.158,2684.451,0,98.75101,,
	06/05/2022 22:09:56.872,1.92568e+06,2669.65,171.00,6.00,-0.001059947,2.499991,-0.00264986,0.0007964513,0.0007858392,0.002591825,0.002275495,2705.053,2669.194,0,98.66757,,
	06/05/2022 23:38:58.291,1.93102e+06,2652.72,172.00,6.00,-0.001059851,2.499986,-0.00264961,0.0007914797,0.0007808733,0.002575632,0.002261085,2688.188,2652.3,0,98.65993,,
	06/06/2022 01:07:26.118,1.93633e+06,2635.97,173.00,6.00,-0.001059883,2.499999,-0.00264971,0.0007865068,0.0007759539,0.002559385,0.002246743,2671.295,2635.534,0,98.65826,,
	06/06/2022 02:35:23.483,1.94161e+06,2621.25,174.00,6.00,-0.001059967,2.499991,-0.00264991,0.0007818888,0.0007716434,0.00254431,0.002234285,2655.634,2620.826,0,98.68966,,
	06/06/2022 04:02:47.461,1.94685e+06,2604.57,175.00,6.00,-0.001059946,2.49999,-0.00264985,0.0007769487,0.0007667405,0.002527926,0.00222005,2638.913,2604.162,0,98.68612,,
	06/06/2022 05:29:43.634,1.95207e+06,2591.47,176.00,6.00,-0.001059984,2.499986,-0.00264995,0.0007725862,0.000762902,0.002513751,0.002208815,2624.11,2591.023,0,98.74653,,
	06/06/2022 06:56:12.092,1.95726e+06,2575.62,177.00,6.00,-0.001059984,2.499999,-0.00264996,0.0007691104,0.0007582295,0.002502301,0.002195403,2612.313,2575.115,0,98.58526,,
	06/06/2022 08:21:57.468,1.9624e+06,2555.28,178.00,6.00,-0.001059942,2.499986,-0.00264984,0.0007624362,0.000752243,0.002480499,0.002177838,2589.583,2554.873,0,98.66307,,
	06/06/2022 09:47:20.634,1.96753e+06,2544.29,179.00,6.00,-0.001059961,2.499993,-0.0026499,0.0007591236,0.0007490253,0.002469847,0.002168509,2578.36,2543.93,0,98.66975,,
	06/06/2022 11:12:03.262,1.97261e+06,2523.46,180.00,6.00,-0.001059913,2.49997,-0.00264975,0.0007533126,0.000742855,0.002450949,0.002150233,2558.616,2523.096,0,98.61179,,
	06/06/2022 12:36:04.853,1.97765e+06,2503.08,181.00,6.00,-0.001059856,2.499999,-0.00264964,0.0007472619,0.0007368094,0.002431465,0.002132329,2538.028,2502.674,0,98.60122,,
	06/06/2022 13:59:23.306,1.98265e+06,2481.86,182.00,6.00,-0.001060166,2.499988,-0.0026504,0.0007408482,0.0007305752,0.002410722,0.00211398,2516.221,2481.499,0,98.61335,,
	06/06/2022 15:22:11.979,1.98762e+06,2467.89,183.00,6.00,-0.001059856,2.499993,-0.00264963,0.0007361504,0.0007264945,0.002395555,0.002102141,2500.242,2467.43,0,98.68834,,
	06/06/2022 16:44:25.629,1.99255e+06,2449.55,184.00,6.00,-0.00106012,2.499991,-0.00265029,0.0007312546,0.0007211991,0.002379614,0.002086687,2483.608,2449.059,0,98.6249,,
	06/06/2022 18:06:09.843,1.99746e+06,2435.03,185.00,6.00,-0.001060138,2.499986,-0.00265033,0.0007269104,0.0007169631,0.002365379,0.002074526,2468.785,2434.684,0,98.63156,,
	06/06/2022 19:27:24.658,2.00233e+06,2420.86,186.00,6.00,-0.001060097,2.499986,-0.00265023,0.0007224081,0.0007127706,0.002350611,0.002062382,2453.512,2420.456,0,98.66592,,
	06/06/2022 20:48:08.427,2.00717e+06,2404.6,187.00,6.00,-0.001060153,2.499995,-0.00265038,0.000718092,0.000707985,0.00233649,0.002048464,2438.791,2404.183,0,98.59253,,
	06/06/2022 22:08:12.984,2.01198e+06,2385.48,188.00,6.00,-0.001059844,2.499991,-0.0026496,0.0007121165,0.0007023052,0.002317157,0.002031532,2418.555,2385.176,0,98.62222,,
	06/06/2022 23:27:47.284,2.01675e+06,2371.14,189.00,6.00,-0.001059891,2.499997,-0.00264972,0.0007074548,0.0006979625,0.002302194,0.002018902,2402.801,2370.708,0,98.65824,,
	06/07/2022 00:46:50.838,2.0215e+06,2355.54,190.00,6.00,-0.001059933,2.499988,-0.00264982,0.0007029458,0.0006934154,0.002287422,0.00200588,2387.492,2355.167,0,98.64422,,
	06/07/2022 02:05:23.330,2.02621e+06,2339.76,191.00,6.00,-0.001059951,2.499999,-0.00264988,0.0006984649,0.000688763,0.002272688,0.001992406,2372.29,2339.386,0,98.61098,,
	06/07/2022 03:23:23.515,2.03089e+06,2324.31,192.00,6.00,-0.001059932,2.499997,-0.00264983,0.00069351,0.0006842416,0.002256263,0.001979316,2355.5,2323.961,0,98.66355,,
	06/07/2022 04:40:57.615,2.03554e+06,2311.72,193.00,6.00,-0.001059972,2.499986,-0.00264992,0.0006895321,0.0006805341,0.002243455,0.00196841,2341.977,2311.337,0,98.69506,,
	06/07/2022 05:58:09.415,2.04018e+06,2300.56,194.00,6.00,-0.001060014,2.499997,-0.00265003,0.0006862338,0.0006772563,0.002232756,0.001958921,2330.786,2300.197,0,98.69177,,
	06/07/2022 07:15:01.107,2.04479e+06,2289.58,195.00,6.00,-0.001059989,2.499995,-0.00264997,0.0006835511,0.000674058,0.002224084,0.00194976,2321.768,2289.276,0,98.61122,,
	06/07/2022 08:31:16.424,2.04936e+06,2271.02,196.00,6.00,-0.001060004,2.499999,-0.00265001,0.0006782869,0.0006685818,0.002206848,0.00193378,2303.839,2270.676,0,98.56917,,
	06/07/2022 09:47:00.605,2.05391e+06,2255.49,197.00,6.00,-0.001059981,2.499982,-0.00264993,0.00067372,0.0006639777,0.002191979,0.001920368,2288.314,2255.122,0,98.55396,,
	06/07/2022 11:02:00.060,2.05841e+06,2232.92,198.00,6.00,-0.0010599,2.499982,-0.00264973,0.0006672106,0.0006573049,0.002170713,0.001900832,2266.139,2232.536,0,98.51537,,
	06/07/2022 12:16:19.933,2.06287e+06,2215.31,199.00,6.00,-0.001059853,2.499997,-0.00264963,0.0006607395,0.0006522183,0.002149804,0.001885722,2244.137,2214.884,0,98.71035,,
	06/07/2022 13:30:10.557,2.0673e+06,2199.41,200.00,6.00,-0.001060153,2.499993,-0.00265038,0.0006568229,0.0006475522,0.002137047,0.001871974,2230.762,2199.063,0,98.58855,,