File: Cell-test-data/SiMP-LFP-PFP1/JB5_SiMP-LFP-PFP1_Channel_78_StatisticByCycle.CSV
Date_Time                    ,Test Time (s),Step Time (s),Cycle Index,Step Index,Current (A),Voltage (V),Power (W),Charge Capacity (Ah),Discharge Capacity (Ah),Charge Energy (Wh),Discharge Energy (Wh),Charge Time (s),Discharge Time (s),V_Max_On_Cycle (V),Coulombic Efficiency (%),mAh/g
	08/06/2022 15:09:27.244,177382,61787.4,1,3,-0.0001589868,2.499993,-0.000397466,0.003196866,0.002728391,0.01062296,0.008092475,72384.87,61779.13,0,85.34582,,
	08/09/2022 10:44:37.230,420692,59478.8,3,3,-0.0001589908,2.499984,-0.000397474,0.002695051,0.00262646,0.008679144,0.007752276,61021.6,59470.78,0,97.45494,,
	08/09/2022 19:33:57.868,452453,7703.66,5,6,-0.001060083,2.499976,-0.00265018,0.002308126,0.002268115,0.007516313,0.006571868,7838.059,7702.632,0,98.26652,,
	08/10/2022 04:00:33.817,482849,7471.61,7,6,-0.001060072,2.499997,-0.00265018,0.00224054,0.002199895,0.007294176,0.00636669,7608.619,7470.667,0,98.18592,,
	08/10/2022 12:12:08.551,512343,7264.19,9,6,-0.001060026,2.499991,-0.00265006,0.002173738,0.002138737,0.007079645,0.006187292,7381.716,7263.252,0,98.38983,,
	08/10/2022 20:13:43.614,541239,7114.29,11,6,-0.001060072,2.499984,-0.00265016,0.002133261,0.002094608,0.006943458,0.006065741,7244.694,7113.409,0,98.18808,,
	08/11/2022 04:02:28.243,569363.185,6905.19,13,6,-0.001060029,2.49999,-0.00265006,0.002074618,0.002033006,0.006753446,0.005888043,7045.039,6904.249,0,97.99426,,
	08/11/2022 11:35:06.184,596521,6666.07,15,6,-0.001060077,2.499997,-0.00265019,0.001999509,0.001962678,0.006515719,0.005680145,6790.145,6665.266,0,98.15796,,
	08/11/2022 18:57:11.532,623046,6528.54,17,6,-0.001060015,2.499997,-0.00265003,0.001958944,0.001922102,0.006381188,0.005571236,6652.29,6527.767,0,98.11932,,
	08/12/2022 02:06:44.045,648819,6322.24,19,6,-0.001060019,2.499991,-0.00265004,0.001899262,0.001861445,0.006189391,0.005394182,6450.172,6321.441,0,98.00886,,
	08/12/2022 09:01:38.560,673714,6117.04,21,6,-0.001060041,2.499997,-0.0026501,0.001834754,0.001801064,0.005984964,0.005216659,6230.584,6116.278,0,98.16381,,
	08/12/2022 15:46:50.011,698025,6012.26,23,6,-0.001060012,2.499999,-0.00265003,0.001799454,0.001770046,0.005868629,0.005135121,6111.629,6011.501,0,98.36572,,
	08/12/2022 22:24:07.840,721863,5865.87,25,6,-0.001060069,2.499999,-0.00265017,0.001758698,0.001726999,0.005735412,0.005012691,5972.253,5865.085,0,98.19759,,
	08/13/2022 04:49:56.878,745012,5691.72,27,6,-0.001060082,2.499988,-0.00265019,0.001706328,0.001675753,0.005567726,0.00486256,5794.712,5691.003,0,98.20815,,
	08/13/2022 11:04:07.010,767462,5526.27,29,6,-0.001060038,2.499999,-0.00265009,0.001652528,0.001627056,0.005396468,0.004719761,5611.771,5525.565,0,98.45858,,
	08/13/2022 17:11:06.221,789481.163,5420.55,31,6,-0.001060058,2.499999,-0.00265014,0.001624722,0.001595952,0.005303392,0.004633262,5517.842,5419.883,0,98.22927,,
	08/13/2022 23:08:13.198,810908,5283.62,33,6,-0.001060027,2.499999,-0.00265007,0.001580826,0.001555576,0.005162817,0.004516268,5368.845,5282.907,0,98.40275,,
	08/14/2022 04:56:38.346,831813,5149.53,35,6,-0.001060019,2.499995,-0.00265004,0.001541134,0.00151613,0.005034823,0.004400892,5233.601,5148.862,0,98.37757,,
	08/14/2022 10:36:36.903,852212,5033.83,37,6,-0.001060012,2.499999,-0.00265003,0.001503941,0.001482013,0.004915211,0.00430265,5107.199,5033.192,0,98.54197,,
	08/14/2022 16:09:32.448,872187,4911.19,39,6,-0.001060066,2.499993,-0.00265016,0.001470396,0.001446004,0.004805954,0.004197358,4993.26,4910.578,0,98.34117,,
	08/14/2022 21:34:58.162,891713,4833.86,41,6,-0.001059987,2.49999,-0.00264996,0.001443207,0.001423173,0.00471757,0.00413486,4901.002,4833.247,0,98.6118,,
	08/15/2022 02:55:19.029,910934,4745.2,43,6,-0.001060022,2.499982,-0.00265004,0.001418124,0.001397043,0.004634764,0.004060111,4815.86,4744.592,0,98.51345,,
	08/15/2022 08:09:00.881,929756,4646.11,45,6,-0.001060017,2.499976,-0.00265002,0.001388803,0.001367867,0.004539913,0.003975706,4716.314,4645.533,0,98.49249,,
	08/15/2022 13:16:35.111,948210,4562.37,47,6,-0.001060061,2.499978,-0.00265013,0.001363121,0.001343251,0.004456073,0.003905415,4629.116,4561.781,0,98.54226,,
	08/15/2022 18:17:17.787,966253,4451.5,49,6,-0.001060041,2.499999,-0.0026501,0.001329235,0.001310621,0.004347384,0.003808774,4513.899,4450.948,0,98.59968,,
	08/15/2022 23:12:51.572,983987,4393.8,51,6,-0.001060045,2.499999,-0.00265011,0.001311081,0.001293586,0.004287264,0.003762485,4452.438,4393.234,0,98.66564,,
	08/16/2022 04:04:42.611,1.0015e+06,4329.73,53,6,-0.001059994,2.499997,-0.00264998,0.001292899,0.001274719,0.004226816,0.003709445,4390.541,4329.197,0,98.59383,,
	08/16/2022 08:51:18.651,1.01869e+06,4245.09,55,6,-0.001060027,2.499991,-0.00265006,0.001268797,0.001249846,0.004148183,0.003636826,4308.732,4244.563,0,98.50641,,
	08/16/2022 13:29:53.538,1.03541e+06,4123.64,57,6,-0.001060033,2.499997,-0.00265008,0.001230661,0.001214118,0.004027042,0.00352891,4179.106,4123.115,0,98.65576,,
	08/16/2022 18:02:27.163,1.05176e+06,4043.8,59,6,-0.001060049,2.49999,-0.00265011,0.001205869,0.001190561,0.003947172,0.003460051,4094.901,4043.284,0,98.7305,,
	08/16/2022 22:32:00.575,1.06794e+06,4011.91,61,6,-0.001059991,2.499986,-0.00264996,0.00119609,0.001181124,0.003913444,0.003436383,4062.061,4011.4,0,98.74872,,
	08/17/2022 02:58:40.241,1.08394e+06,3959.26,63,6,-0.001059973,2.499988,-0.00264992,0.001181171,0.001165575,0.003863851,0.003392593,4011.448,3958.725,0,98.67957,,
	08/17/2022 07:21:13.372,1.09969e+06,3896.07,65,6,-0.001059994,2.499995,-0.00264998,0.001162468,0.001147021,0.003802646,0.003338967,3947.711,3895.592,0,98.6712,,
	08/17/2022 11:38:48.723,1.11514e+06,3821.7,67,6,-0.001059945,2.499993,-0.00264986,0.001139293,0.001125106,0.003727978,0.003274175,3869.192,3821.225,0,98.75478,,
	08/17/2022 15:51:56.041,1.13033e+06,3753.44,69,6,-0.001059993,2.49999,-0.00264997,0.001120298,0.001105019,0.00366609,0.003215334,3804.641,3752.949,0,98.63615,,
	08/17/2022 19:58:32.722,1.14513e+06,3648.39,71,6,-0.001060002,2.499999,-0.00265,0.001088395,0.00107419,0.00356473,0.003121142,3695.988,3647.932,0,98.6949,,
	08/17/2022 23:59:55.282,1.15961e+06,3585.57,73,6,-0.001060033,2.49999,-0.00265007,0.001068148,0.001055664,0.003499605,0.00306691,3627.238,3585.114,0,98.83122,,
	08/18/2022 03:58:07.508,1173902.45,3542.12,75,6,-0.001060008,2.499999,-0.00265002,0.001054901,0.00104284,0.00345591,0.003030623,3582.279,3541.641,0,98.8567,,
	08/18/2022 07:52:38.600,1187973.542,3479.07,77,6,-0.001060022,2.49999,-0.00265004,0.001036373,0.001024333,0.003395991,0.002975772,3519.392,3478.626,0,98.83828,,
	08/18/2022 11:43:39.486,1.20183e+06,3435.9,79,6,-0.001060035,2.49999,-0.00265008,0.001023252,0.00101159,0.003353149,0.002939529,3474.786,3435.459,0,98.86032,,
	08/18/2022 15:31:20.054,1.21549e+06,3382.431,81,6,-0.001060041,2.499995,-0.0026501,0.001007358,0.0009958579,0.003301436,0.002893225,3420.926,3382.001,0,98.85837,,
	08/18/2022 19:15:56.628,1.22897e+06,3338.99,83,6,-0.00106005,2.499978,-0.0026501,0.0009944293,0.0009830593,0.003259025,0.00285633,3376.901,3338.565,0,98.85662,,
	08/18/2022 22:57:16.753,1.24225e+06,3288.19,85,6,-0.001060077,2.49998,-0.00265017,0.0009791089,0.0009681242,0.003209431,0.002812365,3324.901,3287.774,0,98.8781,,
	08/19/2022 02:35:11.288,1.25533e+06,3237.2,87,6,-0.001060106,2.499976,-0.00265024,0.0009642591,0.000953141,0.003161255,0.002768446,3274.491,3236.769,0,98.84698,,
	08/19/2022 06:09:59.575,1.26821e+06,3193.12,89,6,-0.001060111,2.499997,-0.00265027,0.0009505472,0.000940149,0.003116586,0.002730491,3227.959,3192.692,0,98.90607,,
	08/19/2022 09:41:50.775,1.28093e+06,3150.62,91,6,-0.001060131,2.499999,-0.00265033,0.0009377363,0.0009276517,0.003075036,0.002694004,3184.413,3150.219,0,98.92458,,
	08/19/2022 13:11:27.805,1293502.747,3122.69,93,6,-0.00106005,2.499997,-0.00265012,0.0009287263,0.0009193773,0.003045298,0.002670887,3153.783,3122.297,0,98.99335,,
	08/19/2022 16:39:03.908,1.30596e+06,3087.69,95,6,-0.001060019,2.499986,-0.00265003,0.000919025,0.0009090414,0.003013316,0.00264118,3121.164,3087.256,0,98.91367,,
	08/19/2022 20:03:42.458,1.31824e+06,3043.12,97,6,-0.001060066,2.499984,-0.00265015,0.0009054651,0.0008959403,0.002969273,0.002602568,3075.385,3042.724,0,98.94808,,
	08/19/2022 23:25:41.000,1330355.942,3004.97,99,6,-0.001060083,2.49998,-0.00265019,0.0008935069,0.0008847203,0.002930373,0.002569508,3034.198,3004.581,0,99.01662,,
	08/20/2022 02:45:09.836,1342324.778,2967.3,101,6,-0.001060017,2.499999,-0.00265004,0.0008828279,0.0008736401,0.002895605,0.002537174,2998,2966.901,0,98.95927,,
	08/20/2022 06:02:13.789,1.35415e+06,2932.17,103,6,-0.001060091,2.499997,-0.00265022,0.0008722052,0.000863299,0.00286096,0.002507042,2961.836,2931.76,0,98.97889,,
	08/20/2022 09:17:05.723,1.36584e+06,2899.64,105,6,-0.001059994,2.499999,-0.00264998,0.0008626089,0.0008536938,0.002829565,0.002479327,2929.263,2899.255,0,98.96649,,
	08/20/2022 12:29:53.924,1.37741e+06,2868.92,107,6,-0.001060059,2.499999,-0.00265015,0.0008534971,0.0008446812,0.002799778,0.002453007,2898.474,2868.558,0,98.96708,,
	08/20/2022 15:40:12.465,1388827.407,2831.21,109,6,-0.001060096,2.499993,-0.00265023,0.0008419607,0.0008335855,0.002762342,0.002420376,2859.171,2830.865,0,99.00527,,
	08/20/2022 18:48:28.265,1.40012e+06,2802.94,111,6,-0.001060091,2.499986,-0.00265021,0.0008332816,0.0008252775,0.002733924,0.002396286,2829.699,2802.559,0,99.03944,,
	08/20/2022 21:54:41.439,1.4113e+06,2772.77,113,6,-0.001060128,2.499993,-0.00265031,0.0008244397,0.0008163696,0.002705032,0.002370449,2799.669,2772.396,0,99.02113,,
	08/21/2022 00:58:56.266,1422351.208,2741.95,115,6,-0.001060098,2.499995,-0.00265024,0.0008154307,0.0008073177,0.002675593,0.002343879,2769.073,2741.562,0,99.00506,,
	08/21/2022 04:00:56.597,1.43327e+06,2708.92,117,6,-0.001060108,2.499995,-0.00265026,0.0008051926,0.000797584,0.002642286,0.002315184,2734.326,2708.555,0,99.05505,,
	08/21/2022 07:00:53.911,1.44407e+06,2679.32,119,6,-0.001060101,2.499991,-0.00265024,0.000796329,0.0007888984,0.002613431,0.002289829,2704.312,2678.978,0,99.0669,,
	08/21/2022 09:59:02.121,1.45476e+06,2652.64,121,6,-0.001060134,2.499995,-0.00265033,0.000788514,0.0007810426,0.002587948,0.002266965,2677.718,2652.301,0,99.05247,,
	08/21/2022 12:55:28.248,1465343.19,2627.86,123,6,-0.001060063,2.49999,-0.00265015,0.0007811441,0.0007737085,0.002563768,0.002245791,2652.619,2627.537,0,99.04812,,
	08/21/2022 15:50:17.750,1.47583e+06,2603.43,125,6,-0.001060097,2.499984,-0.00265023,0.0007739472,0.0007665027,0.002540201,0.002224912,2628.292,2603.07,0,99.03812,,
	08/21/2022 18:43:18.684,1.48621e+06,2576.69,127,6,-0.001060036,2.49999,-0.00265008,0.0007656388,0.0007586326,0.002513103,0.002201784,2599.98,2576.354,0,99.08492,,
	08/21/2022 21:34:29.125,1.49648e+06,2548.38,129,6,-0.00106012,2.499991,-0.00265029,0.0007574253,0.0007503314,0.00248634,0.002177381,2572.095,2548.044,0,99.06341,,
	08/22/2022 00:23:53.512,1.50665e+06,2523.23,131,6,-0.001060133,2.49999,-0.00265032,0.0007497665,0.0007429246,0.00246139,0.002155683,2546.104,2522.89,0,99.08746,,
	08/22/2022 03:11:36.680,1.51671e+06,2497.56,133,6,-0.00105984,2.499963,-0.00264956,0.0007422586,0.0007353828,0.002436889,0.002133528,2520.622,2497.242,0,99.07366,,
	08/22/2022 05:57:28.626,1526663.568,2469.69,135,6,-0.001060124,2.499991,-0.0026503,0.0007338646,0.0007271646,0.002409651,0.002109217,2492.149,2469.357,0,99.08702,,
	08/22/2022 08:41:45.875,1.53652e+06,2448.76,137,6,-0.001060143,2.499997,-0.00265035,0.0007273115,0.0007210151,0.002388241,0.002091464,2469.802,2448.441,0,99.13429,,
	08/22/2022 11:24:51.051,1.54631e+06,2432.16,139,6,-0.001060063,2.499993,-0.00265015,0.0007222026,0.0007160975,0.002371388,0.002077514,2452.511,2431.849,0,99.15465,,
	08/22/2022 14:07:07.823,1.55604e+06,2420.09,141,6,-0.001060049,2.49999,-0.00265011,0.000718649,0.000712529,0.002359397,0.002067682,2440.656,2419.807,0,99.14841,,
	08/22/2022 16:48:04.418,1.5657e+06,2396.26,143,6,-0.001060021,2.499984,-0.00265004,0.000712115,0.0007055034,0.002338029,0.002047003,2418.355,2395.94,0,99.07155,,
	08/22/2022 19:27:19.139,1.57525e+06,2372.94,145,6,-0.00106007,2.499999,-0.00265017,0.0007047594,0.0006986437,0.002314183,0.002026809,2393.234,2372.629,0,99.13223,,
	08/22/2022 22:05:10.824,1.58473e+06,2353.15,147,6,-0.001060106,2.499997,-0.00265026,0.0006987346,0.0006928289,0.002294451,0.002009862,2372.769,2352.837,0,99.1548,,
	08/23/2022 00:41:44.467,1.59412e+06,2333.11,149,6,-0.00106001,2.499978,-0.00265,0.0006928648,0.0006869175,0.002275224,0.001992631,2352.841,2332.81,0,99.14162,,
	08/23/2022 03:16:48.954,1.60342e+06,2310.23,151,6,-0.001060096,2.499982,-0.00265022,0.0006861879,0.0006802056,0.002253464,0.00197289,2330.248,2309.938,0,99.1282,,
	08/23/2022 05:50:27.642,1.61264e+06,2288.86,153,6,-0.001060064,2.499986,-0.00265015,0.00068003,0.0006739212,0.002233424,0.001954359,2309.3,2288.588,0,99.10168,,
	08/23/2022 08:22:40.049,1.62177e+06,2269.44,155,6,-0.001060106,2.499997,-0.00265026,0.000673431,0.0006682014,0.002211897,0.001937541,2286.853,2269.157,0,99.22344,,
	08/23/2022 10:53:49.373,1.63084e+06,2256.17,157,6,-0.001060059,2.499997,-0.00265014,0.0006694531,0.000664269,0.002198804,0.001926503,2273.356,2255.846,0,99.22562,,
	08/23/2022 13:24:09.716,1.63986e+06,2241.12,159,6,-0.001060041,2.499991,-0.00265009,0.0006654183,0.0006598263,0.002185341,0.001913634,2259.698,2240.844,0,99.15962,,
	08/23/2022 15:53:06.031,1.6488e+06,2219.56,161,6,-0.001060108,2.499995,-0.00265026,0.0006589325,0.0006534961,0.002164281,0.001894998,2237.675,2219.272,0,99.17497,,
	08/23/2022 18:20:36.099,1.65765e+06,2198.58,163,6,-0.001060068,2.499997,-0.00265017,0.00065276,0.0006473137,0.002144194,0.001876832,2216.677,2198.292,0,99.16565,,
	08/23/2022 20:46:53.244,1.66643e+06,2181.28,165,6,-0.00106012,2.499984,-0.00265028,0.0006473208,0.000642249,0.00212637,0.001861961,2198.208,2181.006,0,99.21649,,
	08/23/2022 23:11:55.989,1.67513e+06,2161.21,167,6,-0.001060106,2.499982,-0.00265025,0.0006416845,0.00063634,0.002108012,0.001844458,2179.055,2160.914,0,99.16711,,
	08/24/2022 01:35:37.441,1.68375e+06,2141.6,169,6,-0.001060101,2.499999,-0.00265025,0.0006358371,0.000630569,0.002089032,0.001827372,2159.234,2141.336,0,99.17146,,
	08/24/2022 03:58:01.187,1.6923e+06,2122.88,171,6,-0.001060136,2.499982,-0.00265032,0.0006300361,0.0006250564,0.002070124,0.001811168,2139.512,2122.588,0,99.20962,,
	08/24/2022 06:19:16.680,1.70077e+06,2105.81,173,6,-0.001060112,2.499988,-0.00265027,0.0006251768,0.0006200392,0.002054289,0.001796465,2123.026,2105.557,0,99.17822,,
	08/24/2022 08:39:24.594,1.70918e+06,2090.25,175,6,-0.001060106,2.499995,-0.00265026,0.0006201377,0.0006154464,0.002037805,0.001783113,2105.934,2089.983,0,99.24351,,
	08/24/2022 10:58:36.758,1717531.7,2076.65,177,6,-0.001060097,2.499988,-0.00265023,0.0006160567,0.0006114266,0.00202436,0.001771478,2092.039,2076.363,0,99.24843,,
	08/24/2022 13:17:15.521,1725850.463,2071.05,179,6,-0.001060063,2.499993,-0.00265015,0.000614271,0.0006097785,0.002018326,0.00176726,2085.972,2070.784,0,99.26865,,
	08/24/2022 15:35:17.099,1.73413e+06,2059.6,181,6,-0.001060061,2.499993,-0.00265015,0.0006112147,0.0006063749,0.002008179,0.001757468,2075.586,2059.35,0,99.20818,,
	08/24/2022 17:52:15.530,1.74235e+06,2041.73,183,6,-0.001060055,2.499993,-0.00265013,0.0006061383,0.0006011237,0.001991589,0.00174199,2058.339,2041.443,0,99.17271,,
	08/24/2022 20:08:05.847,1.7505e+06,2025.823,185,6,-0.00106007,2.499997,-0.00265017,0.0006010419,0.0005964746,0.001974924,0.00172821,2041.13,2025.576,0,99.24009,,
	08/24/2022 22:22:46.889,1.75858e+06,2007.13,187,6,-0.001060131,2.49998,-0.00265031,0.0005958108,0.0005909669,0.001957961,0.001711808,2023.265,2006.871,0,99.187,,
	08/25/2022 00:36:14.616,1.76659e+06,1990.04,189,6,-0.001060148,2.499995,-0.00265036,0.0005904783,0.0005859438,0.001940613,0.001697038,2005.16,1989.791,0,99.23206,,
	08/25/2022 02:48:40.016,1774534.958,1975.23,191,6,-0.001060119,2.499999,-0.0026503,0.0005859723,0.0005815846,0.001925901,0.001684207,1989.899,1974.984,0,99.25121,,
	08/25/2022 05:00:08.986,1.78242e+06,1961.09,193,6,-0.001060133,2.499995,-0.00265033,0.0005819711,0.0005774325,0.001912838,0.001672068,1976.324,1960.845,0,99.22013,,
	08/25/2022 07:10:41.163,1790256.105,1947.52,195,6,-0.001060129,2.499997,-0.00265032,0.000577738,0.0005734222,0.001898967,0.001660372,1961.898,1947.266,0,99.25297,,
	08/25/2022 09:20:26.440,1.79804e+06,1935.7,197,6,-0.001060138,2.499982,-0.00265033,0.0005744729,0.0005699521,0.001888255,0.001650305,1950.833,1935.468,0,99.21305,,
	08/25/2022 11:29:27.945,1.80578e+06,1926.72,199,6,-0.001060035,2.499993,-0.00265008,0.0005710978,0.0005672818,0.001877125,0.001642696,1939.344,1926.476,0,99.33181,,
	08/25/2022 13:38:12.648,1.81351e+06,1923.03,201,6,-0.001060045,2.499986,-0.0026501,0.000570596,0.0005661747,0.001875191,0.001639912,1937.732,1922.752,0,99.22515,,
	08/25/2022 15:46:18.841,1821193.783,1912.21,203,6,-0.001060057,2.499995,-0.00265014,0.0005673266,0.0005629992,0.00186447,0.001630763,1926.581,1911.975,0,99.23722,,
	08/25/2022 17:53:29.187,1828824.129,1896.46,205,6,-0.001059998,2.499986,-0.00264998,0.000562481,0.000558347,0.001848662,0.001616874,1910.21,1896.214,0,99.26504,,
	08/25/2022 19:59:38.356,1.83639e+06,1880.72,207,6,-0.001060119,2.499997,-0.00265029,0.0005580782,0.0005537385,0.001834338,0.001603277,1895.137,1880.482,0,99.22239,,
	08/25/2022 22:04:43.762,1.8439e+06,1866.09,209,6,-0.001060106,2.499993,-0.00265026,0.0005534422,0.0005494297,0.001819232,0.001590525,1879.396,1865.861,0,99.275,,
	08/26/2022 00:08:54.758,1.85135e+06,1852.26,211,6,-0.001060126,2.499999,-0.00265031,0.0005495281,0.0005453932,0.001806472,0.00157863,1866.126,1852.043,0,99.24756,,
	08/26/2022 02:12:13.071,1.85875e+06,1839.19,213,6,-0.001060087,2.499982,-0.0026502,0.0005456386,0.0005415235,0.001793775,0.001567228,1852.893,1838.955,0,99.24583,,
	08/26/2022 04:14:38.487,1.86609e+06,1825.86,215,6,-0.001060154,2.499999,-0.00265038,0.0005417308,0.0005375997,0.001781027,0.0015557,1839.65,1825.63,0,99.23743,,
	08/26/2022 06:16:12.022,1873386.964,1814.71,217,6,-0.001060138,2.499995,-0.00265034,0.000537955,0.0005343257,0.001768733,0.001546069,1826.798,1814.488,0,99.32536,,
	08/26/2022 08:17:09.251,1.88064e+06,1805.66,219,6,-0.00106011,2.499972,-0.00265025,0.0005353454,0.0005316661,0.001760105,0.001538412,1817.942,1805.434,0,99.31272,,
	08/26/2022 10:17:26.337,1.88786e+06,1795.41,221,6,-0.001060126,2.499997,-0.00265031,0.0005323914,0.000528644,0.001750402,0.001529661,1807.931,1795.192,0,99.29612,,
	08/26/2022 12:17:08.225,1.89504e+06,1787.76,223,6,-0.001060061,2.499993,-0.00265015,0.0005298968,0.0005263583,0.001742175,0.001523127,1799.445,1787.529,0,99.33221,,
	08/26/2022 14:16:24.696,1.9022e+06,1781.55,225,6,-0.001060061,2.499999,-0.00265015,0.0005281304,0.0005245345,0.001736264,0.001517998,1793.593,1781.339,0,99.31912,,
	08/26/2022 16:15:13.849,1.90933e+06,1773.29,227,6,-0.001060078,2.499988,-0.00265018,0.0005259259,0.0005221103,0.001728955,0.001511024,1786.185,1773.069,0,99.27449,,
	08/26/2022 18:13:17.665,1.91641e+06,1761.2,229,6,-0.001060054,2.499967,-0.0026501,0.0005223838,0.0005185325,0.001717377,0.001500441,1774.097,1760.963,0,99.26275,,
	08/26/2022 20:10:29.070,1.92344e+06,1748.5,231,6,-0.001060084,2.499986,-0.0026502,0.000518512,0.000514801,0.00170477,0.001489438,1760.778,1748.272,0,99.28428,,
	08/26/2022 22:06:49.706,1.93042e+06,1734.97,233,6,-0.001060101,2.499991,-0.00265024,0.0005147349,0.0005108409,0.001692445,0.001477705,1747.962,1734.75,0,99.24348,,
	08/27/2022 00:02:15.720,1.93735e+06,1722.28,235,6,-0.001060124,2.499988,-0.0026503,0.0005106677,0.0005071066,0.001679193,0.00146664,1734.146,1722.058,0,99.30265,,
	08/27/2022 01:56:57.831,1.94423e+06,1711.78,237,6,-0.001060122,2.499984,-0.00265029,0.0005076136,0.000504019,0.001669223,0.00145762,1723.82,1711.551,0,99.29187,,
	08/27/2022 03:51:01.938,1.95108e+06,1702.37,239,6,-0.001060082,2.499997,-0.0026502,0.0005049357,0.000501249,0.001660433,0.001449491,1714.739,1702.156,0,99.26987,,
	08/27/2022 05:44:21.051,1.95788e+06,1690.31,241,6,-0.001060122,2.499969,-0.00265027,0.0005013918,0.0004977024,0.001648864,0.001439048,1702.677,1690.11,0,99.26418,,
	08/27/2022 07:36:52.592,1.96463e+06,1679.65,243,6,-0.00106015,2.499993,-0.00265037,0.0004978611,0.0004945341,0.001637358,0.001429685,1690.672,1679.44,0,99.33175,,
	08/27/2022 09:28:49.206,1.97134e+06,1671.14,245,6,-0.001060091,2.499991,-0.00265022,0.0004955206,0.0004920508,0.001629675,0.001422523,1682.71,1670.918,0,99.29977,,
	08/27/2022 11:20:15.470,1.97803e+06,1664.42,247,6,-0.001060058,2.499999,-0.00265014,0.0004933687,0.0004900668,0.001622578,0.001416803,1675.413,1664.203,0,99.33076,,
	08/27/2022 13:11:17.241,1.98469e+06,1658.84,249,6,-0.001060103,2.499999,-0.00265026,0.0004914638,0.0004884038,0.001616274,0.00141211,1669.075,1658.625,0,99.37738,,
	08/27/2022 15:01:54.855,1991329.797,1650.73,251,6,-0.001060031,2.499993,-0.00265007,0.0004894717,0.0004860146,0.001609697,0.001405163,1662.236,1650.531,0,99.29371,,
	08/27/2022 16:51:53.294,1.99793e+06,1641.37,253,6,-0.001060044,2.499974,-0.00265008,0.0004867152,0.0004832673,0.001600679,0.001397137,1652.789,1641.171,0,99.29159,,
	08/27/2022 18:41:17.560,2.00449e+06,1633.09,255,6,-0.001060128,2.499995,-0.00265031,0.0004842952,0.0004808424,0.001592734,0.001390056,1644.726,1632.887,0,99.28703,,
	08/27/2022 20:30:04.965,2.01102e+06,1623.84,257,6,-0.001059835,2.499986,-0.00264957,0.0004813771,0.0004781193,0.001583153,0.001382005,1634.703,1623.639,0,99.32323,,
	08/27/2022 22:18:11.629,2.01751e+06,1613.649,259,6,-0.001060124,2.49999,-0.0026503,0.0004783216,0.0004751306,0.001573164,0.001373223,1624.394,1613.437,0,99.33288,,
	08/28/2022 00:05:41.317,2.02396e+06,1604.63,261,6,-0.001060111,2.499986,-0.00265026,0.0004756317,0.000472462,0.001564394,0.001365387,1615.215,1604.422,0,99.33358,,
	08/28/2022 01:52:30.207,2.03037e+06,1594.05,263,6,-0.001059822,2.49997,-0.00264952,0.0004725435,0.0004693279,0.001554293,0.001356176,1604.733,1593.852,0,99.31952,,
	08/28/2022 03:38:36.160,2036731.102,1583.12,265,6,-0.001059847,2.499991,-0.00264961,0.0004694422,0.0004660905,0.001544178,0.001346624,1594.208,1582.898,0,99.28603,,
	08/28/2022 05:24:02.983,2.04306e+06,1574.205,267,6,-0.001060164,2.499982,-0.00265039,0.0004666669,0.0004635117,0.001535102,0.001339054,1584.748,1573.98,0,99.32389,,
	08/28/2022 07:08:56.819,2.04935e+06,1566.41,269,6,-0.001060114,2.49999,-0.00265027,0.0004641844,0.0004611544,0.001526967,0.001332157,1576.347,1566.214,0,99.34724,,
	08/28/2022 08:53:22.264,2.05562e+06,1559.78,271,6,-0.001060138,2.499997,-0.00265034,0.0004622843,0.0004592549,0.001520705,0.00132672,1569.894,1559.58,0,99.34468,,
	08/28/2022 10:37:21.242,2.06186e+06,1552.65,273,6,-0.001060147,2.499999,-0.00265037,0.0004602883,0.0004571683,0.001514144,0.001320634,1563.127,1552.465,0,99.32216,,
	08/28/2022 12:20:54.497,2.06807e+06,1546.88,275,6,-0.001060092,2.49998,-0.00265021,0.000458409,0.0004554664,0.001507945,0.001315742,1556.707,1546.692,0,99.35809,,
	08/28/2022 14:04:07.444,2.07426e+06,1541.71,277,6,-0.001060069,2.499988,-0.00265016,0.0004569801,0.000453935,0.001503198,0.001311386,1551.822,1541.519,0,99.33366,,
	08/28/2022 15:46:55.210,2.08043e+06,1534.5,279,6,-0.001060082,2.499988,-0.00265019,0.000454983,0.0004518113,0.001496627,0.001305222,1545.036,1534.302,0,99.30289,,
	08/28/2022 17:29:09.945,2.08656e+06,1527.01,281,6,-0.001060098,2.499986,-0.00265023,0.0004525341,0.0004496107,0.001488591,0.001298747,1536.73,1526.822,0,99.354,,
	08/28/2022 19:10:54.931,2.09267e+06,1519.38,283,6,-0.0010601,2.499991,-0.00265024,0.0004502631,0.0004473592,0.001481152,0.001292181,1529.018,1519.18,0,99.35506,,
	08/28/2022 20:52:06.317,2.09874e+06,1510.24,285,6,-0.001060114,2.499999,-0.00265028,0.0004477158,0.0004446772,0.001472787,0.001284286,1520.415,1510.053,0,99.3213,,
	08/28/2022 22:32:44.792,2.10478e+06,1502.9,287,6,-0.001060117,2.49999,-0.00265028,0.0004453816,0.0004425175,0.001465142,0.001277962,1512.489,1502.708,0,99.35694,,
	08/29/2022 00:12:55.045,2.11079e+06,1495.7,289,6,-0.00105984,2.499995,-0.00264959,0.0004433094,0.0004403985,0.001458359,0.001271765,1505.439,1495.503,0,99.34338,,
	08/29/2022 01:52:31.813,2.11677e+06,1486.71,291,6,-0.001059859,2.499991,-0.00264964,0.0004406783,0.0004376996,0.001449775,0.001263774,1496.49,1486.538,0,99.32406,,
	08/29/2022 03:31:30.935,2.12271e+06,1477.87,293,6,-0.00105984,2.499991,-0.00264959,0.0004379177,0.0004350527,0.001440753,0.001256,1487.131,1477.681,0,99.34576,,
	08/29/2022 05:09:57.932,2.12861e+06,1470.29,295,6,-0.001060106,2.499991,-0.00265026,0.0004356324,0.0004328498,0.001433281,0.001249531,1479.361,1470.103,0,99.36124,,
	08/29/2022 06:47:55.667,2.13449e+06,1462.89,297,6,-0.001060114,2.499997,-0.00265028,0.0004334506,0.0004306882,0.001426126,0.001243234,1471.966,1462.703,0,99.36269,,
	08/29/2022 08:25:28.096,2.14034e+06,1457.16,299,6,-0.001060151,2.499995,-0.00265037,0.0004317455,0.0004290371,0.001420521,0.001238452,1466.214,1456.972,0,99.3727,,
	08/29/2022 10:02:40.293,2.14618e+06,1451.86,301,6,-0.001060108,2.499993,-0.00265026,0.0004303307,0.00042749,0.001415842,0.001234006,1461.361,1451.691,0,99.33989,,
	08/29/2022 11:39:32.830,2.15199e+06,1447.25,303,6,-0.001060111,2.499976,-0.00265025,0.0004289348,0.0004261217,0.001411218,0.001230072,1456.607,1447.071,0,99.34417,,
	08/29/2022 13:16:05.032,2.15778e+06,1442.02,305,6,-0.001060084,2.499988,-0.0026502,0.0004273723,0.0004245708,0.001406052,0.001225616,1451.283,1441.822,0,99.34447,,
	08/29/2022 14:52:26.350,2.16356e+06,1439.63,307,6,-0.001060083,2.499986,-0.00265019,0.0004266741,0.0004238656,0.001403694,0.00122373,1448.918,1439.456,0,99.34175,,
	08/29/2022 16:28:25.206,2.16932e+06,1433.274,309,6,-0.001060084,2.499999,-0.00265021,0.0004247504,0.0004220011,0.001397343,0.001218265,1442.357,1433.1,0,99.35271,,
	08/29/2022 18:03:54.213,2.17505e+06,1425.62,311,6,-0.001060047,2.49999,-0.00265011,0.0004225329,0.0004197485,0.0013901,0.001211691,1434.947,1425.455,0,99.34103,,
	08/29/2022 19:38:52.261,2.18075e+06,1417.54,313,6,-0.001060122,2.499995,-0.0026503,0.000420208,0.0004173778,0.001382476,0.001204679,1426.977,1417.349,0,99.32648,,
	08/29/2022 21:13:17.530,2.18641e+06,1409.54,315,6,-0.001060094,2.49997,-0.0026502,0.0004178246,0.0004150265,0.00137469,0.00119776,1418.877,1409.36,0,99.33033,,
	08/29/2022 22:47:11.842,2.19205e+06,1401.96,317,6,-0.001060124,2.499999,-0.00265031,0.0004156502,0.0004127874,0.001367571,0.00119118,1411.503,1401.769,0,99.31125,,
	08/30/2022 00:20:38.175,2.19765e+06,1395.158,319,6,-0.001060152,2.499999,-0.00265038,0.0004135832,0.0004107962,0.001360801,0.00118535,1404.512,1394.987,0,99.32613,,
	08/30/2022 01:53:35.869,2.20323e+06,1388.01,321,6,-0.001060142,2.499993,-0.00265035,0.0004113315,0.0004086886,0.001353426,0.001179123,1396.879,1387.824,0,99.35748,,
	08/30/2022 03:26:06.585,2.20878e+06,1381.33,323,6,-0.001060117,2.49999,-0.00265028,0.0004094468,0.0004067078,0.001347266,0.001173302,1390.455,1381.164,0,99.33105,,
	08/30/2022 17:45:33.888,2.21432e+06,1434.73,325,6,-0.001060061,2.499988,-0.00265014,0.0003938423,0.0004224183,0.001311227,0.001221158,1337.402,1434.527,0,107.2557,,
	08/30/2022 19:17:58.190,2.21986e+06,1372.94,327,6,-0.001060086,2.499993,-0.00265021,0.0004076636,0.000404227,0.001341866,0.00116669,1384.349,1372.752,0,99.15701,,
	08/30/2022 20:49:10.398,2.22534e+06,1360.35,329,6,-0.001060086,2.499993,-0.00265021,0.0004034722,0.0004005317,0.001327705,0.001155697,1370.103,1360.141,0,99.27119,,
	08/30/2022 22:19:46.325,2.23077e+06,1352.45,331,6,-0.001060122,2.499993,-0.0026503,0.0004009396,0.000398215,0.001319235,0.001148865,1361.524,1352.259,0,99.32045,,
	08/30/2022 23:49:48.070,2.23617e+06,1343.41,333,6,-0.00106014,2.499995,-0.00265034,0.0003983242,0.0003955516,0.001310589,0.001140997,1352.678,1343.224,0,99.30392,,
	08/31/2022 01:19:16.872,2.24154e+06,1335.8,335,6,-0.001060129,2.499999,-0.00265032,0.0003959438,0.000393311,0.001302735,0.001134382,1344.608,1335.606,0,99.33506,,
	08/31/2022 02:48:18.682,2.24688e+06,1329.35,337,6,-0.001060156,2.499995,-0.00265038,0.0003940084,0.0003913757,0.001296369,0.00112871,1338.01,1329.166,0,99.33182,,
	08/31/2022 04:16:52.485,2.2522e+06,1322.5,339,6,-0.001060129,2.499995,-0.00265032,0.0003919393,0.0003893869,0.001289562,0.001122848,1330.985,1322.305,0,99.34875,,
	08/31/2022 05:45:00.865,2257485.562,1316.15,341,6,-0.001060154,2.49999,-0.00265037,0.0003900614,0.0003874601,0.001283388,0.001117203,1324.649,1315.966,0,99.33311,,
	08/31/2022 07:12:42.913,2.26275e+06,1309.73,343,6,-0.001060147,2.499988,-0.00265035,0.0003880895,0.0003855829,0.00127689,0.001111743,1317.935,1309.548,0,99.3541,,
	08/31/2022 08:40:02.475,2.26799e+06,1304.43,345,6,-0.001060187,2.499995,-0.00265046,0.0003865339,0.0003840751,0.001271755,0.001107355,1312.612,1304.246,0,99.36389,,
	08/31/2022 10:07:03.612,2273208.309,1300.24,347,6,-0.001060129,2.499991,-0.00265031,0.0003851717,0.0003828383,0.001267247,0.001103759,1307.97,1300.046,0,99.39419,,
	08/31/2022 11:33:52.093,2.27842e+06,1297.38,349,6,-0.00106005,2.499999,-0.00265012,0.0003843285,0.0003819842,0.001264408,0.001101369,1305.125,1297.206,0,99.39003,,
	08/31/2022 13:00:33.235,2.28362e+06,1296.42,351,6,-0.001060073,2.499982,-0.00265016,0.000383919,0.0003816941,0.001262966,0.001100655,1304.009,1296.245,0,99.42048,,
	08/31/2022 14:27:07.765,2.28881e+06,1293.61,353,6,-0.001060069,2.49999,-0.00265016,0.0003832883,0.0003808649,0.001260818,0.00109832,1301.613,1293.433,0,99.36774,,
	08/31/2022 15:53:25.341,2.29399e+06,1289.33,355,6,-0.001060044,2.49999,-0.0026501,0.0003819492,0.0003796032,0.001256425,0.001094654,1297.07,1289.145,0,99.38578,,
	08/31/2022 17:19:23.490,2.29915e+06,1283.47,357,6,-0.001060068,2.499995,-0.00265016,0.0003804508,0.0003778849,0.00125148,0.001089655,1292.219,1283.293,0,99.32557,,
	08/31/2022 18:44:57.749,2.30428e+06,1277.76,359,6,-0.00106007,2.499993,-0.00265017,0.0003787228,0.0003761979,0.001245808,0.001084697,1286.174,1277.579,0,99.33332,,
	08/31/2022 20:10:07.419,2.30939e+06,1271.9,361,6,-0.001060103,2.49999,-0.00265025,0.0003769064,0.0003744792,0.001239867,0.001079684,1279.95,1271.724,0,99.35603,,
	08/31/2022 21:34:56.020,2.31448e+06,1266.874,363,6,-0.001060057,2.499993,-0.00265014,0.0003753495,0.0003730026,0.00123471,0.001075351,1274.75,1266.696,0,99.37474,,
	08/31/2022 22:59:24.043,2.31955e+06,1261.74,365,6,-0.001060097,2.499997,-0.00265024,0.0003737743,0.0003714882,0.001229546,0.001070924,1269.314,1261.556,0,99.3884,,
	09/01/2022 00:23:30.220,2.32459e+06,1256.29,367,6,-0.001060075,2.499999,-0.00265019,0.0003721887,0.0003698831,0.001224336,0.001066247,1263.909,1256.113,0,99.38053,,
	09/01/2022 01:47:14.259,2.32962e+06,1250.79,369,6,-0.001060073,2.499995,-0.00265018,0.0003705184,0.0003682599,0.001218886,0.001061515,1258.237,1250.615,0,99.39046,,
	09/01/2022 03:10:38.088,2.33462e+06,1245.66,371,6,-0.001060086,2.499978,-0.00265019,0.0003690047,0.0003667497,0.0012139,0.001057079,1253.363,1245.478,0,99.3889,,
	09/01/2022 04:33:39.575,2339604.272,1239.898,373,6,-0.001060055,2.499991,-0.00265013,0.0003673707,0.0003650411,0.001208533,0.001052083,1247.724,1239.721,0,99.36587,,
	09/01/2022 05:56:18.963,2.34456e+06,1234.26,375,6,-0.00106004,2.499982,-0.00265008,0.0003658175,0.000363393,0.001203443,0.00104726,1242.241,1234.094,0,99.33725,,
	09/01/2022 07:18:33.436,2.3495e+06,1227.91,377,6,-0.001060082,2.499988,-0.00265019,0.0003638916,0.0003615243,0.001197137,0.001041762,1235.712,1227.736,0,99.34945,,
	09/01/2022 08:40:23.965,2.35441e+06,1222.78,379,6,-0.001060063,2.499993,-0.00265015,0.0003621037,0.000360008,0.001191286,0.001037309,1229.655,1222.612,0,99.42123,,
	09/01/2022 10:02:08.327,2.35931e+06,1222.069,381,6,-0.001060055,2.499997,-0.00265013,0.0003619818,0.0003597936,0.001190783,0.001036866,1229.34,1221.897,0,99.39552,,
	09/01/2022 11:23:37.536,2.3642e+06,1216.36,383,6,-0.001060094,2.499995,-0.00265023,0.000360535,0.0003581302,0.001186036,0.001031957,1224.299,1216.195,0,99.33299,,
	09/01/2022 12:44:36.247,2369060.944,1208.59,385,6,-0.00106007,2.499995,-0.00265017,0.0003582141,0.0003558306,0.001178468,0.001025159,1216.448,1208.421,0,99.33463,,
	09/01/2022 14:05:07.977,2.37389e+06,1202.58,387,6,-0.001060064,2.49999,-0.00265015,0.000356378,0.0003540658,0.001172475,0.001019975,1210.193,1202.41,0,99.3512,,
	09/01/2022 15:25:16.353,2.3787e+06,1196.97,389,6,-0.001060103,2.499995,-0.00265025,0.0003546327,0.0003524194,0.001166763,0.001015134,1204.271,1196.801,0,99.37589,,
	09/01/2022 16:45:02.898,2.38349e+06,1191.658,391,6,-0.001060138,2.499999,-0.00265034,0.0003530179,0.0003508648,0.001161468,0.001010566,1198.792,1191.491,0,99.39008,,
	09/01/2022 18:04:26.825,2.38825e+06,1185.82,393,6,-0.001060097,2.499986,-0.00265023,0.0003513229,0.0003491425,0.001155922,0.001005536,1193.041,1185.671,0,99.37939,,
	09/01/2022 19:23:27.146,2.39299e+06,1179.68,395,6,-0.001060126,2.499993,-0.00265031,0.0003495167,0.0003473422,0.001150011,0.001000234,1186.905,1179.507,0,99.37787,,
	09/01/2022 20:42:09.082,2.39771e+06,1176.2,397,6,-0.001060117,2.499995,-0.00265029,0.0003483709,0.0003463068,0.001146241,0.0009972728,1183.042,1176.033,0,99.4075,,
	09/01/2022 22:00:41.377,2402426.074,1174.07,399,6,-0.001060091,2.49999,-0.00265022,0.0003477446,0.0003456763,0.001144138,0.0009955099,1180.879,1173.905,0,99.40523,,
	09/01/2022 23:19:02.482,2.40713e+06,1170.91,401,6,-0.001060068,2.499991,-0.00265016,0.0003468345,0.0003447452,0.001141124,0.0009928104,1177.787,1170.736,0,99.39761,,
	09/02/2022 00:37:09.949,2.41181e+06,1167.474,403,6,-0.001060083,2.499997,-0.0026502,0.0003457716,0.0003437316,0.001137602,0.0009898805,1174.223,1167.304,0,99.41,,
	09/02/2022 01:55:00.955,2.41649e+06,1163.32,405,6,-0.001060073,2.49999,-0.00265017,0.0003445041,0.0003425103,0.001133451,0.0009863271,1169.86,1163.156,0,99.42126,,
	09/02/2022 03:12:29.718,2.42113e+06,1156.53,407,6,-0.001060098,2.49999,-0.00265023,0.0003427312,0.0003405229,0.001127653,0.0009804766,1163.863,1156.366,0,99.35567,,
	09/02/2022 04:29:30.994,2.42576e+06,1150.38,409,6,-0.001060124,2.499999,-0.00265031,0.0003407668,0.0003387125,0.001121241,0.000975128,1157.178,1150.219,0,99.39714,,
	09/02/2022 05:46:12.134,2.43036e+06,1145.48,411,6,-0.00106014,2.499999,-0.00265035,0.0003393872,0.000337261,0.001116712,0.0009708831,1152.537,1145.302,0,99.37354,,
	09/02/2022 07:02:34.003,2.43494e+06,1140.813,413,6,-0.001060131,2.49999,-0.00265032,0.0003379091,0.0003358983,0.001111852,0.0009669044,1147.517,1140.644,0,99.40491,,
	09/02/2022 08:18:38.243,2.4395e+06,1136.82,415,6,-0.001060092,2.499982,-0.00265021,0.0003366842,0.0003347156,0.001107835,0.0009634601,1143.336,1136.657,0,99.41531,,
	09/02/2022 09:34:26.774,2.44405e+06,1132.9,417,6,-0.001060089,2.499991,-0.00265021,0.0003354547,0.0003335562,0.001103795,0.0009600712,1139.15,1132.747,0,99.43406,,
	09/02/2022 10:50:00.499,2448585.196,1128.83,419,6,-0.00106005,2.499997,-0.00265012,0.0003344254,0.0003323558,0.001100395,0.0009566258,1135.643,1128.666,0,99.38117,,
	09/02/2022 12:05:22.220,2.45311e+06,1126.898,421,6,-0.001060075,2.49999,-0.00265018,0.0003336191,0.0003317858,0.001097726,0.0009550108,1132.902,1126.743,0,99.45049,,
	09/02/2022 13:20:41.066,2.45763e+06,1126.35,423,6,-0.001060064,2.499993,-0.00265015,0.0003334737,0.0003316156,0.001097188,0.0009546081,1132.413,1126.196,0,99.4428,,
	09/02/2022 14:35:52.471,2.46214e+06,1123.6,425,6,-0.001060055,2.499991,-0.00265013,0.000332867,0.0003308081,0.001095176,0.0009523266,1130.364,1123.441,0,99.38147,,
	09/02/2022 15:50:53.286,2.46664e+06,1121.29,427,6,-0.001060038,2.49999,-0.00265008,0.0003321207,0.0003301266,0.001092705,0.0009503792,1127.828,1121.129,0,99.3996,,
	09/02/2022 17:05:37.890,2.47112e+06,1115.89,429,6,-0.001060058,2.499993,-0.00265014,0.0003306959,0.0003285337,0.00108804,0.000945694,1123.015,1115.728,0,99.34615,,
	09/02/2022 18:19:57.108,2.47558e+06,1110.38,431,6,-0.001060035,2.499997,-0.00265008,0.0003288422,0.0003269188,0.001081968,0.0009409484,1116.693,1110.226,0,99.4151,,
	09/02/2022 19:33:56.792,2.48002e+06,1105.2,433,6,-0.001060075,2.499999,-0.00265019,0.0003273587,0.0003253974,0.001077109,0.0009364683,1111.65,1105.047,0,99.40087,,
	09/02/2022 20:47:41.432,2.48445e+06,1101.97,435,6,-0.001060063,2.499991,-0.00265015,0.0003264401,0.0003244388,0.001074083,0.0009337104,1108.546,1101.813,0,99.38693,,
	09/02/2022 22:01:13.645,2488858.342,1098.6,437,6,-0.001060045,2.499999,-0.00265011,0.0003254621,0.0003234543,0.001070853,0.0009308564,1105.233,1098.449,0,99.38309,,
	09/02/2022 23:14:26.598,2.49325e+06,1093.68,439,6,-0.001060086,2.499995,-0.00265021,0.0003239051,0.0003220071,0.00106576,0.0009265936,1099.966,1093.513,0,99.41402,,
	09/03/2022 00:27:24.280,2.49763e+06,1090.6,441,6,-0.00106005,2.499988,-0.00265011,0.0003229486,0.0003210947,0.001062625,0.0009239736,1096.668,1090.445,0,99.42596,,
	09/03/2022 01:40:04.748,2.50199e+06,1085.41,443,6,-0.001060035,2.499976,-0.00265006,0.0003215136,0.000319562,0.001057894,0.0009194741,1091.797,1085.245,0,99.393,,
	09/03/2022 02:52:27.963,2.50633e+06,1081.486,445,6,-0.001060063,2.49997,-0.00265013,0.0003204245,0.0003184173,0.001054339,0.0009161556,1088.114,1081.335,0,99.37356,,
	09/03/2022 04:04:35.613,2.51066e+06,1077.86,447,6,-0.001060078,2.499993,-0.00265019,0.0003192277,0.0003173465,0.001050402,0.0009130475,1084.098,1077.711,0,99.41068,,
	09/03/2022 05:16:30.542,2.51498e+06,1074.65,449,6,-0.001060041,2.499988,-0.00265009,0.0003183254,0.0003163966,0.001047441,0.0009102855,1081.008,1074.493,0,99.3941,,
	09/03/2022 06:28:09.568,2.51927e+06,1070.43,451,6,-0.001060057,2.499999,-0.00265014,0.0003170701,0.0003151535,0.001043293,0.0009066601,1076.888,1070.274,0,99.39554,,
	09/03/2022 07:39:34.093,2.52356e+06,1067.1,453,6,-0.001060069,2.499999,-0.00265017,0.0003160953,0.0003141768,0.001040085,0.0009038324,1073.396,1066.951,0,99.39304,,
	09/03/2022 08:50:43.859,2.52783e+06,1063.58,455,6,-0.001060059,2.499993,-0.00265014,0.0003149636,0.0003131368,0.001036387,0.0009008009,1069.561,1063.423,0,99.42001,,
	09/03/2022 10:01:43.281,2.53209e+06,1061.12,457,6,-0.001060083,2.499991,-0.0026502,0.0003142523,0.0003124102,0.00103402,0.000898726,1067.225,1060.969,0,99.41382,,
	09/03/2022 11:12:28.776,2.53633e+06,1057.094,459,6,-0.001060031,2.499997,-0.00265007,0.0003131004,0.0003112256,0.001030242,0.0008952804,1063.236,1056.943,0,99.40121,,
	09/03/2022 12:22:55.633,2540560.33,1052.11,461,6,-0.001060083,2.499991,-0.0026502,0.0003116764,0.0003097628,0.00102557,0.0008909755,1058.39,1051.959,0,99.38604,,
	09/03/2022 13:33:02.856,2.54477e+06,1047.79,463,6,-0.001060097,2.499997,-0.00265024,0.000310299,0.0003084996,0.001021074,0.0008872909,1053.713,1047.64,0,99.4201,,
	09/03/2022 14:42:53.160,2.54896e+06,1043.04,465,6,-0.001060138,2.499995,-0.00265034,0.0003090137,0.0003071005,0.001016845,0.0008831912,1049.355,1042.898,0,99.38087,,
	09/03/2022 15:52:26.813,2.55313e+06,1039.23,467,6,-0.001060068,2.49998,-0.00265015,0.00030785,0.0003059768,0.001013035,0.000879915,1045.416,1039.069,0,99.39151,,
	09/03/2022 17:01:43.443,2.55729e+06,1034.707,469,6,-0.001060106,2.49999,-0.00265025,0.0003065475,0.0003046503,0.00100876,0.0008760297,1040.984,1034.55,0,99.38111,,
	09/03/2022 18:10:45.448,2.56143e+06,1031.77,471,6,-0.001060114,2.499991,-0.00265028,0.0003055623,0.0003037805,0.001005524,0.0008735117,1037.631,1031.621,0,99.41688,,
	09/03/2022 19:19:30.414,2.56556e+06,1026.7,473,6,-0.001060059,2.499978,-0.00265012,0.000304135,0.0003022882,0.001000847,0.0008691321,1032.787,1026.55,0,99.3928,,
	09/03/2022 20:27:58.925,2.56966e+06,1023.37,475,6,-0.001060112,2.499991,-0.00265027,0.0003030609,0.0003013107,0.0009973182,0.000866272,1029.213,1023.221,0,99.4225,,
	09/03/2022 21:36:14.820,2.57376e+06,1020.25,477,6,-0.001060058,2.499995,-0.00265014,0.0003021453,0.0003003829,0.0009943116,0.0008635882,1026.03,1020.106,0,99.41672,,
	09/03/2022 22:44:20.424,2.57785e+06,1017.84,479,6,-0.001060063,2.499993,-0.00265015,0.0003014306,0.000299677,0.0009919461,0.000861575,1023.605,1017.695,0,99.41821,,
	09/03/2022 23:52:16.810,2.58192e+06,1015.75,481,6,-0.001060119,2.499997,-0.00265029,0.0003007416,0.0002990617,0.0009896619,0.0008598135,1021.284,1015.596,0,99.44143,,
	09/04/2022 01:00:05.838,2.58599e+06,1013.97,483,6,-0.001060073,2.499997,-0.00265018,0.0003002048,0.0002985368,0.0009878833,0.0008583235,1019.433,1013.824,0,99.44437,,
	09/04/2022 02:07:47.546,2.59005e+06,1012.03,485,6,-0.001060049,2.499999,-0.00265012,0.000299647,0.0002979654,0.0009860265,0.0008566814,1017.551,1011.892,0,99.43878,,
	09/04/2022 03:15:22.343,2.59411e+06,1010.27,487,6,-0.001060055,2.49999,-0.00265013,0.0002991586,0.000297452,0.0009844087,0.0008552574,1015.883,1010.133,0,99.42953,,
	09/04/2022 04:22:49.905,2.59815e+06,1008.32,489,6,-0.001060063,2.499995,-0.00265015,0.0002985926,0.0002968685,0.0009825204,0.0008535839,1013.99,1008.178,0,99.42259,,
	09/04/2022 05:30:06.716,2.60219e+06,1005.45,491,6,-0.001060002,2.499993,-0.00265,0.0002977919,0.0002960223,0.0009798865,0.0008511249,1011.237,1005.3,0,99.40575,,
	09/04/2022 06:37:12.020,2.60622e+06,1002.7,493,6,-0.001060063,2.499986,-0.00265014,0.0002969517,0.000295217,0.0009771126,0.0008487877,1008.401,1002.558,0,99.41583,,
	09/04/2022 07:44:05.448,2.61023e+06,999.3899,495,6,-0.001060078,2.499995,-0.00265019,0.0002960861,0.0002942343,0.0009742643,0.0008459323,1005.444,999.252,0,99.37457,,
	09/04/2022 08:50:37.133,2.61422e+06,993.1254,497,6,-0.001060075,2.499993,-0.00265018,0.0002942255,0.0002923896,0.000968186,0.0008404988,999.1254,992.9349,0,99.37604,,
	09/04/2022 09:56:46.015,2618190.712,987.9737,499,6,-0.001060178,2.499995,-0.00265044,0.0002925741,0.0002908739,0.0009627746,0.0008360333,993.5293,987.7757,0,99.41888,,
	09/04/2022 11:02:37.294,2.62214e+06,983.6602,501,6,-0.001060078,2.499991,-0.00265019,0.0002914384,0.0002896032,0.0009590591,0.0008323376,989.7035,983.4672,0,99.37031,,
	09/04/2022 12:08:14.227,2.62608e+06,980.4637,503,6,-0.001060075,2.499999,-0.00265019,0.000290368,0.0002886621,0.0009555406,0.0008295905,986.0562,980.2799,0,99.41251,,