File: Cell-test-data/SiMP-LFP-PFP1/JB5_SiMP-LFP-PFP1_Channel_78_StatisticByStep.CSV
Date_Time                    ,Test Time (s),Step Time (s),Cycle Index,Step Index,Current (A),Voltage (V),Power (W),Charge Capacity (Ah),Discharge Capacity (Ah),Charge Energy (Wh),Discharge Energy (Wh),Charge Time (s),Discharge Time (s),V_Max_On_Cycle (V),Coulombic Efficiency (%),mAh/g
	08/05/2022 01:53:05.059,43200,43200,1.00,1.00,0,0.2124748,0,0,0,0,0,0,0,0,0,,
	08/08/2022 01:16:08.763,300184,60451.5,2.00,3.00,-0.0001589914,2.499999,-0.000397478,0.002753366,0.00266952,0.008899668,0.007902924,62341.68,60443.55,0,96.9548,,
	08/09/2022 15:14:54.999,436910,7887.24,4.00,6.00,-0.001060024,2.499993,-0.00265005,0.002452787,0.002322143,0.008008858,0.006736468,8329.299,7886.197,0,94.67367,,
	08/09/2022 23:49:12.513,467767,7590.63,6.00,6.00,-0.001060024,2.499997,-0.00265006,0.00227424,0.002234883,0.007403591,0.006471703,7722.933,7589.615,0,98.26942,,
	08/10/2022 08:08:01.614,497697,7355.34,8.00,6.00,-0.001060098,2.499997,-0.00265024,0.002206009,0.002165667,0.007182986,0.006264524,7491.358,7354.4,0,98.1713,,
	08/10/2022 16:14:23.638,526879,7203.64,10.00,6.00,-0.001060045,2.499991,-0.0026501,0.002158581,0.002120904,0.007026407,0.006140517,7330.42,7202.733,0,98.25454,,
	08/11/2022 00:09:57.036,555412,7019.81,12.00,6.00,-0.001060045,2.49999,-0.0026501,0.002106192,0.002066758,0.006855047,0.005986589,7152.612,7018.852,0,98.12769,,
	08/11/2022 07:50:49.070,583064,6782.34,14.00,6.00,-0.001060111,2.499993,-0.00265027,0.002037037,0.001996912,0.006634109,0.005781138,6917.561,6781.483,0,98.03021,,
	08/11/2022 15:17:29.798,609865,6615.1,16.00,6.00,-0.001060036,2.499997,-0.00265009,0.001981123,0.001947562,0.006454438,0.005643078,6727.624,6614.242,0,98.30595,,
	08/11/2022 22:33:50.768,636046,6436.65,18.00,6.00,-0.001060078,2.499999,-0.00265019,0.00193225,0.001895075,0.006294901,0.005493877,6561.707,6435.799,0,98.07608,,
	08/12/2022 05:35:50.084,661365,6213.43,20.00,6.00,-0.001060072,2.49999,-0.00265017,0.001864511,0.001829435,0.006079625,0.005299709,6331.713,6212.618,0,98.11873,,
	08/12/2022 12:24:45.292,685900,6044.9,22.00,6.00,-0.001059996,2.499999,-0.00264999,0.001808413,0.001779718,0.005900577,0.005156609,6141.015,6044.099,0,98.41324,,
	08/12/2022 19:06:48.847,710024,5946.09,24.00,6.00,-0.001060041,2.499997,-0.0026501,0.001782033,0.001750605,0.005810763,0.005080656,6051.907,5945.368,0,98.23639,,
	08/13/2022 01:38:29.657,733525,5777.35,26.00,6.00,-0.001060057,2.499986,-0.00265013,0.001732478,0.001700948,0.005650902,0.004935912,5883.688,5776.614,0,98.18002,,
	08/13/2022 07:58:28.217,756323,5603.23,28.00,6.00,-0.001060108,2.499999,-0.00265027,0.001680668,0.001649774,0.005485416,0.004786045,5707.33,5602.556,0,98.16183,,
	08/13/2022 14:08:47.053,778542,5495.96,30.00,6.00,-0.00106003,2.499991,-0.00265007,0.001643839,0.001618077,0.005365893,0.004698382,5583.271,5495.255,0,98.43282,,
	08/13/2022 20:10:39.984,800255,5341.54,32.00,6.00,-0.001060054,2.49999,-0.00265012,0.001599437,0.001572657,0.005223102,0.00456457,5431.522,5340.837,0,98.32571,,
	08/14/2022 02:03:34.472,821429,5216.45,34.00,6.00,-0.001060022,2.49999,-0.00265004,0.001561667,0.001535823,0.005100728,0.00445843,5304.077,5215.796,0,98.34512,,
	08/14/2022 07:47:35.172,842070,5086.88,36.00,6.00,-0.001060066,2.499995,-0.00265016,0.001522179,0.001497687,0.0049739,0.004347431,5169.26,5086.257,0,98.39101,,
	08/14/2022 13:24:27.304,862282,4994.08,38.00,6.00,-0.001060013,2.499991,-0.00265002,0.001494659,0.001470358,0.004883395,0.004271151,5075.62,4993.44,0,98.37415,,
	08/14/2022 18:52:42.627,881978,4860.12,40.00,6.00,-0.001060043,2.499978,-0.00265008,0.001451601,0.001430926,0.004746073,0.004154325,4929.383,4859.52,0,98.5757,,
	08/15/2022 00:15:57.306,901372,4793.05,42.00,6.00,-0.00106003,2.499999,-0.00265007,0.001432761,0.001411163,0.004682502,0.004100876,4865.423,4792.446,0,98.49255,,
	08/15/2022 05:32:57.788,920393,4693.81,44.00,6.00,-0.00106004,2.499991,-0.00265009,0.001402864,0.001381898,0.004585703,0.004016293,4764.286,4693.212,0,98.50548,,
	08/15/2022 10:43:22.962,939018,4598.21,46.00,6.00,-0.001059985,2.499997,-0.00264996,0.001373192,0.001353751,0.004489659,0.003934918,4663.22,4597.636,0,98.58423,,
	08/15/2022 15:47:51.726,957287,4502.48,48.00,6.00,-0.001060035,2.499978,-0.00265006,0.001346799,0.001325643,0.004403394,0.003852928,4573.488,4501.915,0,98.42917,,
	08/15/2022 20:45:24.703,975140,4414.23,50.00,6.00,-0.001060035,2.499995,-0.00265008,0.001316933,0.001299608,0.004307461,0.003777613,4472.063,4413.638,0,98.68448,,
	08/16/2022 01:39:21.718,992777,4365.17,52.00,6.00,-0.001059971,2.499993,-0.00264992,0.001302871,0.001285139,0.004259693,0.003739152,4424.341,4364.607,0,98.63899,,
	08/16/2022 06:28:44.224,1.01014e+06,4289.68,54.00,6.00,-0.001060015,2.499993,-0.00265003,0.001281397,0.001262927,0.004189286,0.003675423,4351.383,4289.137,0,98.55862,,
	08/16/2022 11:11:30.203,1.02711e+06,4172.89,56.00,6.00,-0.001060012,2.49999,-0.00265002,0.00124801,0.001228624,0.00408218,0.003571876,4238.086,4172.381,0,98.44669,,
	08/16/2022 15:46:47.886,1.04362e+06,4079.29,58.00,6.00,-0.001060068,2.499988,-0.00265016,0.001217511,0.00120106,0.003984659,0.003490234,4134.477,4078.762,0,98.6488,,
	08/16/2022 20:17:26.013,1.05986e+06,4026.03,60.00,6.00,-0.001060003,2.499999,-0.00265001,0.00119918,0.001185278,0.003924755,0.003446465,4072.243,4025.488,0,98.84074,,
	08/17/2022 00:45:48.977,1.07596e+06,3988.97,62.00,6.00,-0.001059985,2.499999,-0.00264996,0.001189284,0.00117436,0.003890569,0.003417661,4038.847,3988.478,0,98.74516,,
	08/17/2022 05:10:29.026,1.09184e+06,3928.47,64.00,6.00,-0.001059935,2.499995,-0.00264983,0.001171816,0.001156535,0.003833224,0.003366591,3979.763,3927.99,0,98.69601,,
	08/17/2022 09:30:37.291,1.10745e+06,3855.98,66.00,6.00,-0.001059956,2.49999,-0.00264988,0.001150551,0.001135204,0.003763948,0.003303584,3907.403,3855.497,0,98.66611,,
	08/17/2022 13:45:57.375,1.12277e+06,3789.27,68.00,6.00,-0.001059999,2.49999,-0.00264999,0.001130361,0.001115563,0.003698746,0.003246375,3838.854,3788.772,0,98.69092,,
	08/17/2022 17:56:07.825,1.13778e+06,3699.87,70.00,6.00,-0.001060035,2.499993,-0.00265008,0.001104658,0.001089285,0.003616093,0.003167105,3751.343,3699.408,0,98.60833,,
	08/17/2022 21:59:41.957,1.1524e+06,3612.98,72.00,6.00,-0.001060052,2.499991,-0.00265012,0.001076519,0.001063751,0.003526901,0.003090319,3655.703,3612.506,0,98.814,,
	08/18/2022 01:59:22.578,1.16678e+06,3563.31,74.00,6.00,-0.001060068,2.499986,-0.00265016,0.001061144,0.001049092,0.003476631,0.003048358,3603.475,3562.83,0,98.86423,,
	08/18/2022 05:55:59.642,1.18097e+06,3513.51,76.00,6.00,-0.001060078,2.49999,-0.00265018,0.001047785,0.001034449,0.003432544,0.003006026,3558.1,3513.032,0,98.72718,,
	08/18/2022 09:48:28.261,1.19492e+06,3455.64,78.00,6.00,-0.001060015,2.499997,-0.00265003,0.001028735,0.001017416,0.003371204,0.002955892,3493.485,3455.18,0,98.89975,,
	08/18/2022 13:37:56.193,1.20869e+06,3408.32,80.00,6.00,-0.001060026,2.499986,-0.00265005,0.001015307,0.001003456,0.003327127,0.002915538,3447.885,3407.87,0,98.83275,,
	08/18/2022 17:24:00.201,1.22226e+06,3361.68,82.00,6.00,-0.001060041,2.499995,-0.0026501,0.001000641,0.0009897114,0.003279546,0.002875616,3397.97,3361.243,0,98.90775,,
	08/18/2022 21:07:03.204,1.23564e+06,3314.22,84.00,6.00,-0.001060063,2.49998,-0.00265014,0.0009870481,0.0009757798,0.003235079,0.002835019,3351.868,3313.802,0,98.85838,,
	08/19/2022 00:46:39.110,1.24881e+06,3262.18,86.00,6.00,-0.001060075,2.499997,-0.00265018,0.0009716741,0.0009604748,0.003185337,0.002789844,3299.694,3261.73,0,98.84742,,
	08/19/2022 04:22:58.021,1.26179e+06,3215.49,88.00,6.00,-0.001060092,2.49999,-0.00265022,0.0009572722,0.0009467353,0.003138514,0.00274976,3250.778,3215.083,0,98.89928,,
	08/19/2022 07:56:15.260,1.27459e+06,3170.81,90.00,6.00,-0.001060106,2.499999,-0.00265026,0.0009436302,0.0009335831,0.003094231,0.00271116,3204.423,3170.403,0,98.93527,,
	08/19/2022 11:26:50.860,1.28723e+06,3134.23,92.00,6.00,-0.001060077,2.499991,-0.00265018,0.0009321342,0.0009227975,0.003056735,0.002680158,3165.374,3133.815,0,98.99834,,
	08/19/2022 14:55:34.604,1.29975e+06,3106.39,94.00,6.00,-0.001060038,2.49999,-0.00265008,0.0009246244,0.0009145401,0.003031578,0.002657128,3139.942,3105.957,0,98.90936,,
	08/19/2022 18:21:43.499,1.31212e+06,3062.64,96.00,6.00,-0.001060031,2.499997,-0.00265007,0.0009117987,0.0009016978,0.002989825,0.002619375,3096.466,3062.255,0,98.89221,,
	08/19/2022 21:45:01.353,1.32432e+06,3023.57,98.00,6.00,-0.001060083,2.49998,-0.00265019,0.0008996011,0.0008902015,0.002950083,0.002585664,3054.869,3023.16,0,98.95515,,
	08/20/2022 01:05:44.099,1.33636e+06,2985.73,100.00,6.00,-0.001060041,2.499991,-0.00265009,0.00088842,0.0008790681,0.002913815,0.002552981,3016.935,2985.362,0,98.94736,,
	08/20/2022 04:23:59.318,1.34825e+06,2949.43,102.00,6.00,-0.001060124,2.49998,-0.00265029,0.0008773892,0.0008684123,0.002877862,0.002521955,2979.588,2949.016,0,98.97687,,
	08/20/2022 07:39:56.381,1.36001e+06,2916.85,104.00,6.00,-0.001060041,2.499986,-0.00265009,0.0008673348,0.0008587776,0.00284502,0.002493984,2945.293,2916.496,0,99.01339,,
	08/20/2022 10:53:46.091,1.37164e+06,2886.92,106.00,6.00,-0.001060036,2.499993,-0.00265008,0.0008578084,0.000849948,0.00281384,0.002468507,2912.982,2886.532,0,99.08366,,
	08/20/2022 14:05:21.631,1.38314e+06,2848.69,108.00,6.00,-0.001060112,2.499967,-0.00265025,0.0008476932,0.000838745,0.002780965,0.00243543,2878.599,2848.338,0,98.9444,,
	08/20/2022 17:14:35.215,1.39449e+06,2817.73,110.00,6.00,-0.001060083,2.499988,-0.00265019,0.0008376638,0.0008296178,0.002748288,0.002408969,2844.594,2817.363,0,99.03947,,
	08/20/2022 20:21:48.542,1.40572e+06,2786.47,112.00,6.00,-0.001060094,2.49999,-0.00265022,0.0008284841,0.0008204314,0.00271835,0.002382104,2813.382,2786.114,0,99.02802,,
	08/20/2022 23:27:04.834,1.41684e+06,2758.25,114.00,6.00,-0.001060073,2.499999,-0.00265018,0.0008200455,0.0008121002,0.002690633,0.002357934,2784.734,2757.896,0,99.03111,,
	08/21/2022 02:30:12.940,1.42783e+06,2724.36,116.00,6.00,-0.001060124,2.499997,-0.00265031,0.0008103692,0.0008021634,0.002659157,0.002328664,2751.898,2724.008,0,98.9874,,
	08/21/2022 05:31:09.845,1.43868e+06,2693.22,118.00,6.00,-0.001060184,2.499999,-0.00265046,0.0008008373,0.0007929893,0.002628142,0.00230171,2719.621,2692.869,0,99.02003,,
	08/21/2022 08:30:11.368,1.44943e+06,2666.1,120.00,6.00,-0.001060092,2.499993,-0.00265022,0.0007924049,0.0007850111,0.00260066,0.002278495,2690.927,2665.744,0,99.06693,,
	08/21/2022 11:27:27.381,1.46006e+06,2640.36,122.00,6.00,-0.001060055,2.499997,-0.00265013,0.0007846217,0.0007773876,0.002575177,0.002256379,2664.52,2640.003,0,99.07801,,
	08/21/2022 14:23:05.614,1.4706e+06,2617.1,124.00,6.00,-0.001060047,2.49999,-0.00265011,0.0007773626,0.0007705385,0.00255136,0.002236646,2639.853,2616.745,0,99.12215,,
	08/21/2022 17:17:01.589,1.48104e+06,2589.87,126.00,6.00,-0.0010601,2.499999,-0.00265025,0.0007696257,0.0007625055,0.002526099,0.002213125,2613.57,2589.516,0,99.07486,,
	08/21/2022 20:09:08.234,1.49136e+06,2562.41,128.00,6.00,-0.001060073,2.499993,-0.00265018,0.0007617112,0.0007544642,0.002500317,0.002189526,2586.757,2562.078,0,99.04859,,
	08/21/2022 22:59:23.763,1.50158e+06,2535.8,130.00,6.00,-0.001060185,2.499995,-0.00265046,0.0007534189,0.0007466295,0.002473278,0.002166546,2558.457,2535.468,0,99.09885,,
	08/22/2022 01:47:58.121,1.51169e+06,2510.84,132.00,6.00,-0.001060084,2.499999,-0.00265021,0.000746016,0.0007392941,0.00244913,0.002145051,2533.373,2510.524,0,99.09896,,
	08/22/2022 04:34:46.400,1.5217e+06,2483.17,134.00,6.00,-0.001060101,2.499999,-0.00265025,0.0007379847,0.0007311412,0.002423029,0.002120943,2506.181,2482.83,0,99.07268,,
	08/22/2022 07:19:46.943,1.5316e+06,2458.62,136.00,6.00,-0.00106015,2.49998,-0.00265035,0.0007300967,0.0007238603,0.002397367,0.002099643,2479.324,2458.307,0,99.14581,,
	08/22/2022 10:03:26.029,1.54142e+06,2439.74,138.00,6.00,-0.001060082,2.499984,-0.00265019,0.0007244133,0.0007183419,0.002378708,0.002083758,2460.022,2439.43,0,99.1619,,
	08/22/2022 12:46:06.714,1.55118e+06,2427.71,140.00,6.00,-0.001060068,2.499995,-0.00265016,0.0007207336,0.0007147756,0.002366302,0.002074066,2447.586,2427.396,0,99.17333,,
	08/22/2022 15:27:49.425,1.56088e+06,2410.32,142.00,6.00,-0.001060041,2.49998,-0.00265008,0.0007158472,0.0007096374,0.002350218,0.002059321,2430.906,2410.003,0,99.13251,,
	08/22/2022 18:07:52.598,1.57049e+06,2383.54,144.00,6.00,-0.001060043,2.499988,-0.00265009,0.0007078871,0.000701765,0.002324356,0.002035868,2404.276,2383.214,0,99.13516,,
	08/22/2022 20:46:24.529,1.58e+06,2362.38,146.00,6.00,-0.001060096,2.499963,-0.0026502,0.0007016328,0.0006955477,0.002303946,0.002017776,2382.65,2362.076,0,99.13273,,
	08/22/2022 23:23:38.130,1.58943e+06,2343.48,148.00,6.00,-0.001060047,2.499997,-0.00265011,0.0006959917,0.0006899712,0.002285457,0.002001559,2363.464,2343.172,0,99.13497,,
	08/23/2022 01:59:28.125,1.59878e+06,2321.3,150.00,6.00,-0.001060072,2.499995,-0.00265017,0.0006896426,0.0006834598,0.00226472,0.001982449,2342.005,2321.017,0,99.10349,,
	08/23/2022 04:33:49.123,1.60804e+06,2300.78,152.00,6.00,-0.001060092,2.499993,-0.00265022,0.0006828869,0.0006774049,0.002242711,0.001964602,2319.029,2300.472,0,99.19722,,
	08/23/2022 07:06:43.392,1.61722e+06,2278,154.00,6.00,-0.001060058,2.49998,-0.00265012,0.0006765323,0.0006707131,0.002222038,0.001944951,2297.389,2277.7,0,99.13985,,
	08/23/2022 09:38:19.472,1.62631e+06,2259.99,156.00,6.00,-0.001060084,2.499995,-0.0026502,0.0006711258,0.0006654142,0.002204378,0.001929445,2279.085,2259.702,0,99.14895,,
	08/23/2022 12:09:08.534,1.63536e+06,2250.28,158.00,6.00,-0.001060105,2.499986,-0.00265025,0.0006680174,0.0006625376,0.0021939,0.001921658,2268.531,2249.987,0,99.17969,,
	08/23/2022 14:38:48.443,1.64434e+06,2229.49,160.00,6.00,-0.00106004,2.499997,-0.0026501,0.0006622553,0.0006564187,0.002175119,0.00190358,2248.893,2229.216,0,99.11868,,
	08/23/2022 17:07:00.504,1.65324e+06,2207.48,162.00,6.00,-0.001060045,2.499997,-0.00265011,0.0006556904,0.0006499312,0.002153773,0.001884456,2226.662,2207.204,0,99.12167,,
	08/23/2022 19:33:53.428,1.66205e+06,2189.57,164.00,6.00,-0.001060083,2.499982,-0.00265019,0.0006500476,0.0006446806,0.002135299,0.001869096,2207.444,2189.307,0,99.17437,,
	08/23/2022 21:59:35.395,1.67079e+06,2171.84,166.00,6.00,-0.001060075,2.499993,-0.00265018,0.0006448981,0.000639478,0.002118472,0.001853782,2189.969,2171.583,0,99.15954,,
	08/24/2022 00:23:56.270,1.67945e+06,2151.46,168.00,6.00,-0.001060143,2.499993,-0.00265035,0.0006385706,0.0006334706,0.00209791,0.00183595,2168.492,2151.189,0,99.20133,,
	08/24/2022 02:46:58.453,1.68803e+06,2131.5,170.00,6.00,-0.001060156,2.499991,-0.00265038,0.0006328714,0.0006275834,0.00207938,0.001818625,2149.195,2131.215,0,99.16444,,
	08/24/2022 05:08:47.490,1.69654e+06,2114.8,172.00,6.00,-0.001060154,2.499988,-0.00265037,0.0006275632,0.0006226802,0.002062056,0.001804188,2131.148,2114.514,0,99.22191,,
	08/24/2022 07:29:28.068,1.70498e+06,2096.92,174.00,6.00,-0.001060129,2.499997,-0.00265032,0.0006225741,0.0006174195,0.00204579,0.001788791,2114.143,2096.656,0,99.17205,,
	08/24/2022 09:49:07.739,1.71336e+06,2083.3,176.00,6.00,-0.001060122,2.499988,-0.00265029,0.0006182396,0.00061341,0.002031536,0.001777221,2099.5,2083.039,0,99.21881,,
	08/24/2022 12:07:58.176,1.72169e+06,2073.33,178.00,6.00,-0.001060072,2.499995,-0.00265017,0.0006147962,0.0006104437,0.002020205,0.0017689,2087.754,2073.069,0,99.29203,,
	08/24/2022 14:26:21.582,1.73e+06,2065.06,180.00,6.00,-0.001060044,2.499997,-0.00265011,0.0006126819,0.0006079989,0.002013062,0.001762058,2080.679,2064.797,0,99.23566,,
	08/24/2022 16:43:55.131,1.73825e+06,2050.36,182.00,6.00,-0.001059999,2.49999,-0.00264999,0.0006087681,0.0006036633,0.00200017,0.001749425,2067.352,2050.096,0,99.16146,,
	08/24/2022 19:00:18.574,1.74643e+06,2033.65,184.00,6.00,-0.001059991,2.499972,-0.00264995,0.0006034094,0.0005987423,0.001982651,0.001734886,2049.07,2033.382,0,99.22654,,
	08/24/2022 21:15:36.169,1.75455e+06,2016.9,186.00,6.00,-0.001060084,2.499997,-0.00265021,0.0005986756,0.0005938422,0.001967275,0.00172038,2033.127,2016.636,0,99.19264,,
	08/24/2022 23:29:39.069,1.76259e+06,1997.93,188.00,6.00,-0.001060115,2.499999,-0.00265029,0.0005930537,0.0005882801,0.001948995,0.001703918,2013.945,1997.704,0,99.19509,,
	08/25/2022 01:42:34.579,1.77057e+06,1982.12,190.00,6.00,-0.001060142,2.499997,-0.00265035,0.0005882107,0.0005836062,0.001933214,0.001690158,1997.517,1981.877,0,99.21721,,
	08/25/2022 03:54:31.240,1.77849e+06,1968.11,192.00,6.00,-0.001060101,2.499997,-0.00265025,0.0005838898,0.0005794872,0.001919112,0.001678061,1982.799,1967.837,0,99.24599,,
	08/25/2022 06:05:31.417,1.78635e+06,1953.58,194.00,6.00,-0.001060138,2.499991,-0.00265034,0.0005796874,0.0005752168,0.001905354,0.001665589,1968.535,1953.345,0,99.22879,,
	08/25/2022 08:15:39.607,1.79415e+06,1942.12,196.00,6.00,-0.001060098,2.499978,-0.00265022,0.0005759872,0.0005718305,0.001893236,0.001655748,1956.009,1941.864,0,99.27833,,
	08/25/2022 10:25:01.554,1.80192e+06,1930.45,198.00,6.00,-0.001060069,2.499997,-0.00265017,0.0005725667,0.0005683766,0.001881972,0.00164574,1944.363,1930.182,0,99.26818,,
	08/25/2022 12:33:51.581,1.80965e+06,1925.47,200.00,6.00,-0.001060077,2.499991,-0.00265018,0.0005705958,0.0005669196,0.001875418,0.001641928,1937.867,1925.227,0,99.35574,,
	08/25/2022 14:42:19.741,1.81735e+06,1916.34,202.00,6.00,-0.001060058,2.499991,-0.00265014,0.0005684729,0.0005642102,0.001868305,0.001634167,1930.438,1916.089,0,99.25014,,
	08/25/2022 16:50:02.212,1.82502e+06,1904.21,204.00,6.00,-0.001060026,2.499988,-0.00265005,0.0005650685,0.0005606365,0.001857076,0.0016237,1918.861,1903.949,0,99.21566,,
	08/25/2022 18:56:42.202,1.83262e+06,1888.71,206.00,6.00,-0.001060061,2.499993,-0.00265015,0.000560583,0.000556078,0.001842483,0.001610241,1904.007,1888.472,0,99.19638,,
	08/25/2022 21:02:17.973,1.84015e+06,1872.63,208.00,6.00,-0.001060096,2.499993,-0.00265023,0.0005555872,0.0005513589,0.001826202,0.001596233,1886.685,1872.376,0,99.23895,,
	08/25/2022 23:06:56.077,1.84763e+06,1859.29,210.00,6.00,-0.001060103,2.499982,-0.00265024,0.0005514678,0.0005474329,0.001812779,0.001584591,1872.73,1859.061,0,99.26834,,
	08/26/2022 01:10:40.693,1.85506e+06,1846.15,212.00,6.00,-0.001060089,2.499988,-0.00265021,0.0005475698,0.0005435667,0.001800091,0.001573242,1859.486,1845.915,0,99.26894,,
	08/26/2022 03:13:32.649,1.86243e+06,1832.99,214.00,6.00,-0.001060115,2.499978,-0.00265026,0.0005436721,0.0005396941,0.001787346,0.001561859,1846.285,1832.736,0,99.26831,,
	08/26/2022 05:15:30.206,1.86975e+06,1819.11,216.00,6.00,-0.001060128,2.499988,-0.00265031,0.0005395694,0.0005356197,0.001773986,0.001549833,1832.318,1818.865,0,99.268,,
	08/26/2022 07:16:45.363,1.87702e+06,1810.14,218.00,6.00,-0.001060112,2.499969,-0.00265025,0.0005367984,0.000532974,0.00176488,0.0015422,1822.911,1809.911,0,99.28755,,
	08/26/2022 09:17:22.712,1.88426e+06,1799.77,220.00,6.00,-0.001060091,2.49999,-0.00265022,0.0005340042,0.0005299206,0.001755713,0.001533356,1813.411,1799.539,0,99.23529,,
	08/26/2022 11:17:20.730,1.89146e+06,1790.78,222.00,6.00,-0.00106008,2.499988,-0.00265019,0.0005310491,0.0005272788,0.001745987,0.0015257,1803.349,1790.571,0,99.29003,,
	08/26/2022 13:16:49.252,1.89862e+06,1784.13,224.00,6.00,-0.001060041,2.49999,-0.00265009,0.0005290357,0.0005252895,0.001739304,0.001520098,1796.598,1783.89,0,99.29189,,
	08/26/2022 15:15:54.080,1.90577e+06,1778.22,226.00,6.00,-0.001060012,2.499999,-0.00265003,0.0005273381,0.0005235439,0.001733602,0.001515226,1790.864,1777.997,0,99.28049,,
	08/26/2022 17:14:22.065,1.91288e+06,1767.67,228.00,6.00,-0.001060055,2.499984,-0.00265012,0.0005242091,0.0005204306,0.001723333,0.001506069,1780.27,1767.437,0,99.2792,,
	08/26/2022 19:11:59.499,1.91993e+06,1754.01,230.00,6.00,-0.001060114,2.499995,-0.00265028,0.0005204303,0.0005164315,0.001711032,0.001494239,1767.532,1753.775,0,99.23164,,
	08/26/2022 21:08:46.489,1.92694e+06,1742.14,232.00,6.00,-0.001060133,2.499997,-0.00265033,0.0005167982,0.0005129547,0.001699153,0.001483996,1755.005,1741.901,0,99.25628,,
	08/26/2022 23:04:39.039,1.93389e+06,1728.1,234.00,6.00,-0.001060101,2.49998,-0.00265023,0.0005126682,0.0005088304,0.001685722,0.001471756,1740.966,1727.894,0,99.2514,,
	08/27/2022 00:59:41.965,1.9408e+06,1717.02,236.00,6.00,-0.00106019,2.499997,-0.00265047,0.0005091213,0.0005055596,0.001674137,0.001462073,1728.929,1716.8,0,99.30042,,
	08/27/2022 02:54:04.565,1.94766e+06,1707.69,238.00,6.00,-0.001060152,2.499999,-0.00265038,0.0005061286,0.0005028123,0.001664346,0.001454095,1718.768,1707.474,0,99.34476,,
	08/27/2022 04:47:47.782,1.95448e+06,1696.65,240.00,6.00,-0.00106014,2.499984,-0.00265033,0.0005032397,0.0004995661,0.001654866,0.001444575,1708.92,1696.436,0,99.27001,,
	08/27/2022 06:40:41.986,1.96126e+06,1684.65,242.00,6.00,-0.001060168,2.499995,-0.00265041,0.0004994295,0.0004959856,0.001642476,0.001433959,1696.029,1684.428,0,99.31044,,
	08/27/2022 08:32:55.078,1.96799e+06,1675.36,244.00,6.00,-0.001060129,2.499997,-0.00265032,0.0004967294,0.0004932868,0.001633657,0.001426134,1686.85,1675.14,0,99.30695,,
	08/27/2022 10:24:35.372,1.97469e+06,1667.51,246.00,6.00,-0.00106012,2.499984,-0.00265028,0.0004942465,0.0004909763,0.001625475,0.001419407,1678.381,1667.296,0,99.33835,,
	08/27/2022 12:15:49.047,1.98136e+06,1661.02,248.00,6.00,-0.001060097,2.499999,-0.00265024,0.0004924394,0.0004890527,0.001619485,0.001413915,1672.297,1660.81,0,99.31226,,
	08/27/2022 14:06:41.624,1.98802e+06,1656.52,250.00,6.00,-0.001060068,2.49999,-0.00265016,0.0004910622,0.0004877251,0.001614899,0.001410192,1667.586,1656.307,0,99.32043,,
	08/27/2022 15:56:58.853,1.99463e+06,1646.12,252.00,6.00,-0.001060091,2.499999,-0.00265023,0.0004881293,0.0004846658,0.001605318,0.001401233,1657.619,1645.895,0,99.29046,,
	08/27/2022 17:46:39.455,2.00121e+06,1637.64,254.00,6.00,-0.001060069,2.499988,-0.00265016,0.0004853704,0.0004821662,0.001596268,0.001393917,1648.253,1637.42,0,99.33985,,
	08/27/2022 19:35:46.157,2.00776e+06,1628.57,256.00,6.00,-0.001060157,2.499984,-0.00265038,0.000482872,0.0004795157,0.001588068,0.001386166,1639.766,1628.365,0,99.30492,,
	08/27/2022 21:24:13.326,2.01427e+06,1618.15,258.00,6.00,-0.001059847,2.499995,-0.00264961,0.0004799755,0.0004764472,0.001578595,0.001377057,1629.952,1617.951,0,99.26491,,
	08/27/2022 23:12:01.202,2.02074e+06,1609.21,260.00,6.00,-0.001059854,2.499991,-0.00264963,0.0004770723,0.0004737184,0.001569096,0.001369081,1620.094,1608.993,0,99.29698,,
	08/28/2022 00:59:11.159,2.02717e+06,1598.87,262.00,6.00,-0.001059898,2.49999,-0.00264973,0.0004743054,0.0004707026,0.001560064,0.001360218,1610.69,1598.66,0,99.24041,,
	08/28/2022 02:45:38.556,2.03355e+06,1588.77,264.00,6.00,-0.001059849,2.499982,-0.0026496,0.0004709418,0.0004677045,0.001549053,0.001351365,1599.312,1588.578,0,99.31258,,
	08/28/2022 04:31:23.774,2.0399e+06,1578.31,266.00,6.00,-0.001060156,2.499986,-0.00265038,0.0004679168,0.000464711,0.001539193,0.001342582,1589.033,1578.099,0,99.31488,,
	08/28/2022 06:16:33.808,2.04621e+06,1569.99,268.00,6.00,-0.001060124,2.499988,-0.0026503,0.000465431,0.0004622712,0.001531055,0.001335433,1580.565,1569.798,0,99.32111,,
	08/28/2022 08:01:12.327,2.05249e+06,1562.45,270.00,6.00,-0.00106017,2.499988,-0.00265041,0.0004631488,0.0004600442,0.00152358,0.001328967,1572.787,1562.241,0,99.32966,,
	08/28/2022 09:45:25.211,2.05874e+06,1556.24,272.00,6.00,-0.00105981,2.499993,-0.00264952,0.0004612757,0.0004582145,0.001517384,0.001323681,1566.456,1556.043,0,99.33636,,
	08/28/2022 11:29:10.653,2.06497e+06,1549.65,274.00,6.00,-0.001060138,2.499999,-0.00265034,0.0004592367,0.000456267,0.001510678,0.001318036,1559.518,1549.455,0,99.35334,,
	08/28/2022 13:12:33.650,2.07117e+06,1544.49,276.00,6.00,-0.001060092,2.499995,-0.00265022,0.0004577338,0.0004547641,0.001505708,0.001313748,1554.412,1544.293,0,99.3512,,
	08/28/2022 14:55:35.406,2.07735e+06,1538.84,278.00,6.00,-0.001060075,2.499999,-0.00265019,0.0004561099,0.0004530745,0.001500322,0.001308918,1548.869,1538.638,0,99.33449,,
	08/28/2022 16:38:05.946,2.0835e+06,1530.14,280.00,6.00,-0.001060098,2.49999,-0.00265023,0.0004535928,0.0004505184,0.001492078,0.001301421,1540.329,1529.953,0,99.32223,,
	08/28/2022 18:20:06.291,2.08962e+06,1522.81,282.00,6.00,-0.001060108,2.49997,-0.00265024,0.0004515011,0.000448365,0.001485205,0.001295121,1533.287,1522.616,0,99.30539,,
	08/28/2022 20:01:35.416,2.09571e+06,1514.68,284.00,6.00,-0.001060126,2.499986,-0.0026503,0.0004492466,0.0004459794,0.001477813,0.001288131,1525.553,1514.487,0,99.27274,,
	08/28/2022 21:42:29.138,2.10176e+06,1506.35,286.00,6.00,-0.00105983,2.499997,-0.00264957,0.000446487,0.0004435285,0.001468762,0.001280928,1516.223,1506.167,0,99.33738,,
	08/28/2022 23:22:53.642,2.10779e+06,1499.46,288.00,6.00,-0.001059859,2.499995,-0.00264964,0.0004443976,0.0004414745,0.001461926,0.001274906,1509.117,1499.259,0,99.34224,,
	08/29/2022 01:02:48.369,2.11378e+06,1491.53,290.00,6.00,-0.001060138,2.499999,-0.00265034,0.0004421654,0.0004391563,0.00145461,0.001268124,1501.558,1491.346,0,99.31947,,
	08/29/2022 02:42:05.687,2.11974e+06,1481.78,292.00,6.00,-0.001060138,2.499991,-0.00265034,0.0004392927,0.0004362843,0.001445246,0.001259635,1491.836,1481.599,0,99.31517,,
	08/29/2022 04:20:48.020,2.12566e+06,1473.63,294.00,6.00,-0.001060115,2.49999,-0.00265028,0.0004367598,0.0004338937,0.001436977,0.001252575,1483.214,1473.438,0,99.34378,,
	08/29/2022 05:59:00.557,2.13156e+06,1466.26,296.00,6.00,-0.001060147,2.499984,-0.00265035,0.0004346885,0.0004317323,0.001430203,0.001246271,1476.134,1466.07,0,99.31994,,
	08/29/2022 07:36:44.471,2.13742e+06,1459.59,298.00,6.00,-0.001059824,2.499993,-0.00264955,0.0004325638,0.0004297237,0.001423215,0.00124042,1468.949,1459.38,0,99.34342,,
	08/29/2022 09:14:06.837,2.14326e+06,1454.72,300.00,6.00,-0.001060154,2.499991,-0.00265038,0.0004310388,0.0004283217,0.001418181,0.001236371,1463.78,1454.531,0,99.36964,,
	08/29/2022 10:51:08.727,2.14908e+06,1449.8,302.00,6.00,-0.001060119,2.49998,-0.00265028,0.0004294627,0.0004268879,0.001412982,0.00123225,1458.402,1449.616,0,99.40046,,
	08/29/2022 12:27:51.474,2.15489e+06,1444.59,304.00,6.00,-0.001060117,2.49999,-0.00265028,0.0004281174,0.0004253396,0.001408522,0.00122782,1453.813,1444.401,0,99.35115,,
	08/29/2022 14:04:17.557,2.16067e+06,1442.01,306.00,6.00,-0.001060084,2.499976,-0.00265018,0.0004270685,0.0004245645,0.001405014,0.001225733,1450.26,1441.828,0,99.41369,,
	08/29/2022 15:40:29.343,2.16644e+06,1436.7,308.00,6.00,-0.001060057,2.499984,-0.00265013,0.0004258387,0.0004230081,0.001400923,0.001221223,1446.069,1436.508,0,99.33527,,
	08/29/2022 17:16:13.409,2.17219e+06,1429.05,310.00,6.00,-0.001060096,2.499991,-0.00265023,0.0004237299,0.0004207434,0.001394006,0.001214602,1438.913,1428.859,0,99.2952,,
	08/29/2022 18:51:27.502,2.1779e+06,1421.9,312.00,6.00,-0.001060091,2.499999,-0.00265023,0.0004214421,0.0004186487,0.001386514,0.001208451,1431.145,1421.713,0,99.33717,,
	08/29/2022 20:26:08.892,2.18358e+06,1413.56,314.00,6.00,-0.001060091,2.499986,-0.00265021,0.0004189863,0.0004162013,0.001378476,0.001201222,1422.815,1413.382,0,99.33531,,
	08/29/2022 22:00:18.154,2.18923e+06,1405.71,316.00,6.00,-0.00106015,2.499991,-0.00265037,0.0004165874,0.0004138973,0.001370635,0.00119443,1414.668,1405.51,0,99.35424,,
	08/29/2022 23:33:58.273,2.19485e+06,1398.76,318.00,6.00,-0.001059845,2.499988,-0.0026496,0.0004144584,0.0004118329,0.00136367,0.001188357,1407.43,1398.586,0,99.36652,,
	08/30/2022 01:07:10.740,2.20045e+06,1391.76,320.00,6.00,-0.001060164,2.499999,-0.00265041,0.0004124228,0.0004097233,0.001356982,0.001182211,1400.559,1391.575,0,99.34545,,
	08/30/2022 02:39:54.570,2.20601e+06,1385.13,322.00,6.00,-0.001059854,2.499988,-0.00264962,0.0004103016,0.0004077748,0.001350055,0.00117643,1393.348,1384.949,0,99.38418,,
	08/30/2022 04:12:11.184,2.21155e+06,1377.75,324.00,6.00,-0.001059836,2.499991,-0.00264958,0.0004083157,0.0004055691,0.001343559,0.001169989,1386.62,1377.573,0,99.32732,,
	08/30/2022 18:32:00.657,2.21711e+06,1386.34,326.00,6.00,-0.001060083,2.499984,-0.00265019,0.0004123205,0.0004081698,0.00135786,0.001178459,1400.189,1386.145,0,98.99335,,
	08/30/2022 20:03:39.709,2.2226e+06,1365.31,328.00,6.00,-0.001060092,2.499999,-0.00265023,0.0004051906,0.000401983,0.001333485,0.00116002,1375.974,1365.099,0,99.20837,,
	08/30/2022 21:34:32.106,2.22806e+06,1355.88,330.00,6.00,-0.0010601,2.49999,-0.00265024,0.0004021268,0.0003992001,0.001323194,0.001151765,1365.573,1355.699,0,99.27219,,
	08/30/2022 23:04:51.729,2.23348e+06,1347.64,332.00,6.00,-0.001060128,2.499988,-0.00265031,0.00039976,0.0003967969,0.001315313,0.001144699,1357.51,1347.447,0,99.25877,,
	08/31/2022 00:34:36.217,2.23886e+06,1339.34,334.00,6.00,-0.001060142,2.499986,-0.00265034,0.0003971163,0.0003943345,0.001306592,0.001137401,1348.563,1339.148,0,99.2995,,
	08/31/2022 02:03:51.069,2.24422e+06,1332.65,336.00,6.00,-0.001060151,2.499991,-0.00265037,0.0003949793,0.0003923358,0.00129956,0.001131531,1341.307,1332.455,0,99.33072,,
	08/31/2022 03:32:38.760,2.24954e+06,1325.59,338.00,6.00,-0.001060142,2.499982,-0.00265034,0.0003928969,0.0003902877,0.001292709,0.001125498,1334.243,1325.402,0,99.3359,,
	08/31/2022 05:00:59.825,2.25484e+06,1319.34,340.00,6.00,-0.00105984,2.499997,-0.0026496,0.0003909866,0.000388426,0.001286428,0.001120022,1327.758,1319.157,0,99.34509,,
	08/31/2022 06:28:55.005,2.26012e+06,1312.84,342.00,6.00,-0.001059816,2.499997,-0.00264954,0.0003890094,0.0003864623,0.00127992,0.001114304,1321.066,1312.655,0,99.34523,,
	08/31/2022 07:56:25.176,2.26537e+06,1306.96,344.00,6.00,-0.001059849,2.49999,-0.00264961,0.0003872479,0.0003847843,0.001274116,0.001109403,1315.046,1306.784,0,99.36384,,
	08/31/2022 09:23:35.150,2.2706e+06,1302.18,346.00,6.00,-0.001060119,2.499982,-0.00265028,0.0003858375,0.0003834111,0.001269444,0.001105418,1310.249,1301.99,0,99.37115,,
	08/31/2022 10:50:29.350,2.27581e+06,1298.87,348.00,6.00,-0.001060097,2.499999,-0.00265024,0.0003847775,0.0003824265,0.001265924,0.001102609,1306.633,1298.694,0,99.38899,,
	08/31/2022 12:17:12.571,2.28102e+06,1296.42,350.00,6.00,-0.001060029,2.49999,-0.00265006,0.0003839471,0.0003817027,0.001263138,0.001100587,1303.824,1296.24,0,99.41544,,
	08/31/2022 13:43:52.294,2.28622e+06,1295.39,352.00,6.00,-0.001060101,2.499995,-0.00265025,0.0003837826,0.0003813927,0.001262461,0.001099828,1303.433,1295.217,0,99.37726,,
	08/31/2022 15:10:18.700,2.2914e+06,1291.17,354.00,6.00,-0.001060044,2.499993,-0.0026501,0.0003826435,0.0003801475,0.001258702,0.001096224,1299.532,1290.992,0,99.34768,,
	08/31/2022 16:36:27.556,2.29657e+06,1286.85,356.00,6.00,-0.001060007,2.499997,-0.00265001,0.0003813338,0.0003788658,0.001254381,0.001092515,1295.138,1286.656,0,99.35281,,
	08/31/2022 18:02:13.581,2.30172e+06,1280.86,358.00,6.00,-0.001060086,2.499995,-0.00265021,0.0003795564,0.0003771131,0.001248548,0.001087404,1288.996,1280.681,0,99.35625,,
	08/31/2022 19:27:35.334,2.30684e+06,1274.71,360.00,6.00,-0.00106011,2.499999,-0.00265027,0.0003777159,0.0003753046,0.001242513,0.001082074,1282.651,1274.53,0,99.3616,,
	08/31/2022 20:52:34.168,2.31194e+06,1269.33,362.00,6.00,-0.001060022,2.499991,-0.00265005,0.0003760949,0.0003737122,0.001237179,0.001077415,1277.174,1269.144,0,99.36647,,
	08/31/2022 22:17:12.764,2.31702e+06,1264.26,364.00,6.00,-0.001060058,2.499991,-0.00265014,0.0003746257,0.0003722275,0.001232341,0.001073097,1272.26,1264.077,0,99.35985,,
	08/31/2022 23:41:29.795,2.32207e+06,1258.69,366.00,6.00,-0.001060063,2.499999,-0.00265016,0.0003730519,0.0003705889,0.00122718,0.001068328,1266.823,1258.509,0,99.33978,,
	09/01/2022 01:05:24.994,2.32711e+06,1253.2,368.00,6.00,-0.001060082,2.499993,-0.0026502,0.000371405,0.0003689711,0.001221792,0.001063595,1261.329,1253.024,0,99.34467,,
	09/01/2022 02:28:58.831,2.33212e+06,1248.18,370.00,6.00,-0.001060047,2.499984,-0.0026501,0.0003698438,0.0003674827,0.001216667,0.001059228,1256.163,1247.989,0,99.3616,,
	09/01/2022 03:52:11.724,2.33712e+06,1242.71,372.00,6.00,-0.001060078,2.499984,-0.00265018,0.0003682819,0.0003658802,0.001211526,0.001054542,1250.706,1242.535,0,99.34785,,
	09/01/2022 05:15:02.245,2.34209e+06,1237.32,374.00,6.00,-0.001060055,2.499993,-0.00265013,0.0003666036,0.0003642867,0.001206023,0.001049878,1245.121,1237.142,0,99.36802,,
	09/01/2022 06:37:29.588,2.34703e+06,1231.34,376.00,6.00,-0.00106005,2.499997,-0.00265012,0.0003648449,0.00036254,0.001200258,0.001044738,1239.064,1231.177,0,99.36824,,
	09/01/2022 07:59:31.304,2.35196e+06,1224.94,378.00,6.00,-0.001060097,2.499991,-0.00265023,0.0003629824,0.0003606474,0.001194154,0.001039197,1232.715,1224.767,0,99.35671,,
	09/01/2022 09:21:16.692,2.35686e+06,1222.84,380.00,6.00,-0.001060007,2.499999,-0.00265002,0.0003620877,0.0003600184,0.001191188,0.00103745,1229.662,1222.668,0,99.4285,,
	09/01/2022 10:42:56.623,2.36176e+06,1220.3,382.00,6.00,-0.00106004,2.499988,-0.00265009,0.0003615153,0.0003592756,0.001189245,0.001035349,1227.756,1220.125,0,99.38047,,
	09/01/2022 12:04:10.977,2.36664e+06,1212.81,384.00,6.00,-0.001060073,2.499995,-0.00265018,0.0003593685,0.0003570705,0.001182242,0.001028799,1220.385,1212.617,0,99.36056,,
	09/01/2022 13:24:54.971,2.37148e+06,1205.71,386.00,6.00,-0.001060092,2.499984,-0.00265021,0.0003571405,0.0003549839,0.001174968,0.001022663,1212.781,1205.532,0,99.39613,,
	09/01/2022 14:45:14.886,2.3763e+06,1199.75,388.00,6.00,-0.001060106,2.499976,-0.00265024,0.0003554173,0.0003532362,0.00116934,0.001017544,1206.932,1199.579,0,99.38631,,
	09/01/2022 16:05:12.223,2.3811e+06,1194.15,390.00,6.00,-0.001060124,2.49999,-0.0026503,0.0003538173,0.0003515983,0.00116409,0.001012734,1201.5,1193.974,0,99.37285,,
	09/01/2022 17:24:47.743,2.38587e+06,1188.51,392.00,6.00,-0.001060096,2.499995,-0.00265023,0.0003522272,0.0003499288,0.001158882,0.001007836,1196.119,1188.335,0,99.34748,,
	09/01/2022 18:44:00.345,2.39063e+06,1182.97,394.00,6.00,-0.001060091,2.499986,-0.00265021,0.000350527,0.0003483063,0.001153323,0.001003066,1190.33,1182.817,0,99.36648,,
	09/01/2022 20:02:49.623,2.39535e+06,1177.64,396.00,6.00,-0.001060114,2.499993,-0.00265028,0.0003488511,0.0003467363,0.001147836,0.0009985035,1184.623,1177.48,0,99.39378,,
	09/01/2022 21:21:26.218,2.40007e+06,1175.23,398.00,6.00,-0.001060133,2.49997,-0.0026503,0.0003479807,0.0003460219,0.001144943,0.0009964717,1181.673,1175.062,0,99.4371,,
	09/01/2022 22:39:53.556,2.40478e+06,1172.59,400.00,6.00,-0.001060084,2.499997,-0.00265021,0.0003473003,0.0003452348,0.001142667,0.0009942458,1179.365,1172.423,0,99.40527,,
	09/01/2022 23:58:08.036,2.40947e+06,1169.12,402.00,6.00,-0.001060049,2.49999,-0.00265011,0.0003463607,0.0003442128,0.00113954,0.0009912852,1176.222,1168.947,0,99.37985,,
	09/02/2022 01:16:07.568,2.41415e+06,1165.07,404.00,6.00,-0.001060066,2.499999,-0.00265016,0.0003452215,0.0003430172,0.001135801,0.0009878116,1172.344,1164.908,0,99.36148,,
	09/02/2022 02:33:49.106,2.41881e+06,1160.21,406.00,6.00,-0.00106011,2.499999,-0.00265027,0.0003438699,0.0003416048,0.001131363,0.0009836657,1167.719,1160.052,0,99.34127,,
	09/02/2022 03:51:03.225,2.42345e+06,1153.01,408.00,6.00,-0.001060114,2.499988,-0.00265027,0.0003416793,0.000339484,0.001124213,0.000977402,1160.286,1152.842,0,99.35751,,
	09/02/2022 05:07:53.880,2.42806e+06,1148.02,410.00,6.00,-0.001060126,2.49998,-0.00265029,0.0003400114,0.0003380183,0.001118762,0.0009730941,1154.649,1147.851,0,99.4138,,
	09/02/2022 06:24:25.443,2.43265e+06,1142.93,412.00,6.00,-0.001060145,2.499993,-0.00265036,0.0003386909,0.0003365193,0.001114426,0.0009687331,1150.162,1142.754,0,99.3588,,
	09/02/2022 07:40:37.865,2.43722e+06,1138.42,414.00,6.00,-0.001060124,2.49999,-0.0026503,0.0003372318,0.0003351887,0.001109641,0.000964814,1145.214,1138.247,0,99.39415,,
	09/02/2022 08:56:34.506,2.44178e+06,1134.48,416.00,6.00,-0.001060129,2.499995,-0.00265032,0.0003361679,0.0003340335,0.001106138,0.0009614898,1141.567,1134.329,0,99.3651,,
	09/02/2022 10:12:15.808,2.44632e+06,1131.02,418.00,6.00,-0.001060084,2.499993,-0.0026502,0.0003350579,0.000333003,0.001102465,0.0009584858,1137.793,1130.851,0,99.38669,,
	09/02/2022 11:27:42.204,2.45085e+06,1127.51,420.00,6.00,-0.001060072,2.499997,-0.00265018,0.0003339116,0.0003319652,0.001098703,0.0009554966,1133.98,1127.34,0,99.4171,,
	09/02/2022 12:43:02.087,2.45537e+06,1126.73,422.00,6.00,-0.001060101,2.499986,-0.00265024,0.0003336244,0.0003317356,0.001097717,0.0009549234,1132.929,1126.565,0,99.43385,,
	09/02/2022 13:58:18.275,2.45988e+06,1125.22,424.00,6.00,-0.001060072,2.499988,-0.00265017,0.0003332833,0.0003312831,0.001096547,0.0009536729,1131.77,1125.058,0,99.39983,,
	09/02/2022 15:13:23.945,2.46439e+06,1122.62,426.00,6.00,-0.001060031,2.499978,-0.00265005,0.0003323644,0.0003305165,0.001093514,0.0009514753,1128.638,1122.462,0,99.44399,,
	09/02/2022 16:28:18.769,2.46888e+06,1119.23,428.00,6.00,-0.001060054,2.499995,-0.00265013,0.0003315869,0.0003295149,0.001090943,0.0009485802,1126.044,1119.06,0,99.37513,,
	09/02/2022 17:42:49.815,2.47335e+06,1112.3,430.00,6.00,-0.001060057,2.49999,-0.00265013,0.0003296438,0.000327481,0.001084589,0.0009425717,1119.411,1112.144,0,99.34389,,
	09/02/2022 18:56:59.732,2.4778e+06,1107.77,432.00,6.00,-0.00106008,2.499999,-0.0026502,0.0003282424,0.0003261536,0.001080001,0.0009387113,1114.645,1107.608,0,99.36366,,
	09/02/2022 20:10:50.708,2.48224e+06,1103.75,434.00,6.00,-0.001060075,2.499982,-0.00265017,0.0003268469,0.0003249677,0.001075441,0.0009352333,1109.953,1103.594,0,99.42503,,
	09/02/2022 21:24:29.585,2.48665e+06,1100.89,436.00,6.00,-0.001060061,2.499974,-0.00265012,0.0003259911,0.0003241198,0.001072601,0.0009327988,1107.053,1100.724,0,99.42598,,
	09/02/2022 22:37:52.741,2.49106e+06,1096.14,438.00,6.00,-0.001060072,2.499999,-0.00265018,0.0003247353,0.0003227316,0.001068476,0.0009287227,1102.75,1095.974,0,99.38296,,
	09/02/2022 23:50:56.787,2.49544e+06,1091.74,440.00,6.00,-0.001060064,2.499993,-0.00265015,0.0003234047,0.0003214352,0.001064129,0.0009249497,1098.238,1091.583,0,99.39102,,
	09/03/2022 01:03:47.339,2.49981e+06,1087.95,442.00,6.00,-0.001060078,2.499991,-0.00265019,0.0003224252,0.0003203142,0.001060899,0.0009217021,1094.891,1087.788,0,99.34526,,
	09/03/2022 02:16:18.153,2.50416e+06,1083.53,444.00,6.00,-0.001060083,2.499986,-0.00265019,0.0003208769,0.0003190151,0.001055829,0.0009179009,1089.663,1083.376,0,99.4198,,
	09/03/2022 03:28:33.448,2.5085e+06,1079.55,446.00,6.00,-0.001060086,2.499993,-0.00265021,0.000319705,0.0003178444,0.00105196,0.0009144677,1085.725,1079.397,0,99.41803,,
	09/03/2022 04:40:34.677,2.51282e+06,1076.38,448.00,6.00,-0.001060059,2.499982,-0.00265013,0.000318743,0.000316908,0.001048824,0.0009117629,1082.474,1076.231,0,99.42431,,
	09/03/2022 05:52:22.047,2.51713e+06,1072.36,450.00,6.00,-0.001060031,2.49999,-0.00265007,0.0003176968,0.0003157193,0.001045366,0.0009082977,1078.937,1072.201,0,99.37753,,
	09/03/2022 07:03:53.400,2.52142e+06,1068.78,452.00,6.00,-0.001060075,2.499997,-0.00265018,0.0003164917,0.0003146643,0.001041397,0.0009052327,1074.854,1068.623,0,99.42262,,
	09/03/2022 08:15:10.522,2.5257e+06,1064.98,454.00,6.00,-0.001060024,2.49999,-0.00265005,0.0003154646,0.0003135458,0.001038031,0.0009019914,1071.252,1064.824,0,99.39175,,
	09/03/2022 09:26:14.737,2.52996e+06,1062.35,456.00,6.00,-0.001060044,2.499988,-0.0026501,0.0003145994,0.0003127652,0.001035184,0.0008997436,1068.321,1062.182,0,99.41695,,
	09/03/2022 10:37:08.233,2.53421e+06,1059.18,458.00,6.00,-0.001060041,2.49999,-0.00265009,0.0003137825,0.0003118399,0.001032478,0.0008970877,1065.553,1059.029,0,99.38093,,
	09/03/2022 11:47:44.925,2.53845e+06,1054.76,460.00,6.00,-0.001060115,2.499986,-0.00265027,0.0003125016,0.0003105436,0.00102827,0.0008932675,1061.198,1054.615,0,99.37343,,
	09/03/2022 12:58:01.138,2.54267e+06,1049.69,462.00,6.00,-0.001060019,2.499986,-0.00265003,0.0003108564,0.0003090522,0.001022885,0.0008888848,1055.609,1049.543,0,99.41959,,
	09/03/2022 14:08:00.561,2.54687e+06,1045.57,464.00,6.00,-0.001060112,2.499978,-0.00265026,0.0003097704,0.0003078479,0.001019337,0.0008853801,1051.931,1045.422,0,99.37937,,
	09/03/2022 15:17:41.957,2.55105e+06,1041.45,466.00,6.00,-0.001060131,2.499986,-0.00265031,0.0003083587,0.0003066292,0.001014706,0.0008818047,1047.142,1041.301,0,99.43913,,
	09/03/2022 16:27:07.554,2.55521e+06,1037.18,468.00,6.00,-0.001060097,2.499972,-0.00265021,0.0003072448,0.0003053721,0.001011049,0.000878148,1043.352,1037.032,0,99.39048,,
	09/03/2022 17:36:15.842,2.55936e+06,1033.26,470.00,6.00,-0.001060119,2.499995,-0.00265029,0.0003059468,0.0003042183,0.001006793,0.0008747719,1038.939,1033.108,0,99.43501,,
	09/03/2022 18:45:10.728,2.5635e+06,1029.29,472.00,6.00,-0.001060063,2.49999,-0.00265015,0.0003050204,0.0003030497,0.001003749,0.0008713808,1035.798,1029.137,0,99.35391,,
	09/03/2022 19:53:46.135,2.56761e+06,1024.83,474.00,6.00,-0.001060091,2.499988,-0.00265021,0.0003035149,0.0003017446,0.0009988174,0.0008675476,1030.696,1024.69,0,99.41674,,
	09/03/2022 21:02:08.333,2.57171e+06,1021.74,476.00,6.00,-0.001060097,2.499986,-0.00265023,0.0003025699,0.0003008315,0.0009957037,0.0008648767,1027.471,1021.601,0,99.42546,,
	09/03/2022 22:10:18.782,2.5758e+06,1019.01,478.00,6.00,-0.001060075,2.49999,-0.00265018,0.0003017641,0.0003000255,0.0009930484,0.0008625891,1024.736,1018.867,0,99.42388,,
	09/03/2022 23:18:19.580,2.57988e+06,1016.62,480.00,6.00,-0.001060047,2.499993,-0.00265011,0.0003010527,0.00029932,0.0009907002,0.0008605347,1022.335,1016.486,0,99.42445,,
	09/04/2022 00:26:12.235,2.58396e+06,1014.71,482.00,6.00,-0.001060089,2.499999,-0.00265022,0.0003005058,0.0002987554,0.0009888773,0.000858949,1020.521,1014.561,0,99.41753,,
	09/04/2022 01:33:57.764,2.58802e+06,1013.06,484.00,6.00,-0.001060091,2.499999,-0.00265023,0.0002999742,0.0002982706,0.0009871137,0.0008575805,1018.664,1012.92,0,99.43208,,
	09/04/2022 02:41:35.977,2.59208e+06,1011.3,486.00,6.00,-0.001060063,2.49999,-0.00265015,0.0002994654,0.0002977517,0.000985417,0.000856096,1016.932,1011.151,0,99.42776,,
	09/04/2022 03:49:07.403,2.59613e+06,1009.58,488.00,6.00,-0.001060043,2.49999,-0.0026501,0.0002989784,0.00029724,0.0009837932,0.0008546592,1015.278,1009.427,0,99.41853,,
	09/04/2022 04:56:29.832,2.60017e+06,1006.94,490.00,6.00,-0.001060082,2.499993,-0.0026502,0.0002982455,0.0002964599,0.0009813815,0.0008523957,1012.781,1006.804,0,99.4013,,
	09/04/2022 06:03:40.723,2.60421e+06,1004.08,492.00,6.00,-0.001060055,2.499991,-0.00265013,0.0002973383,0.0002956194,0.0009783882,0.0008499567,1009.724,1003.936,0,99.42191,,
	09/04/2022 07:10:40.413,2.60823e+06,1001.11,494.00,6.00,-0.001060096,2.49998,-0.00265022,0.0002965689,0.0002947505,0.0009758546,0.0008474379,1007.083,1000.967,0,99.38684,,
	09/04/2022 08:17:24.637,2.61223e+06,996.3675,496.00,6.00,-0.001060073,2.499991,-0.00265017,0.000295224,0.0002933285,0.0009714395,0.0008432647,1002.59,996.174,0,99.35794,,
	09/04/2022 09:23:44.255,2.61621e+06,990.3956,498.00,6.00,-0.001060075,2.499997,-0.00265018,0.0002934434,0.0002915871,0.0009656287,0.0008381366,996.4898,990.2053,0,99.36738,,
	09/04/2022 10:29:43.684,2.62017e+06,985.9165,500.00,6.00,-0.001060111,2.499993,-0.00265027,0.0002919729,0.0002902731,0.0009608118,0.0008342679,991.4988,985.7298,0,99.41783,,
	09/04/2022 11:35:27.459,2.62411e+06,982.3091,502.00,6.00,-0.00106011,2.499988,-0.00265026,0.0002908347,0.0002892071,0.0009570808,0.0008311791,987.63,982.1316,0,99.44035,,
	09/04/2022 12:08:14.227,2.62608e+06,980.4637,503.00,6.00,-0.001060075,2.499999,-0.00265019,0.000290368,0.0002886621,0.0009555406,0.0008295905,986.0562,980.2799,0,99.41251,,