File: Cell-test-data/SiMP-LFP-SS3/JB3_SiMPs-LFP-BSF3-A5_Channel_36_StatisticByCycle.CSV
Date_Time                    ,Test Time (s),Step Time (s),Cycle Index,Step Index,Current (A),Voltage (V),Power (W),Charge Capacity (Ah),Discharge Capacity (Ah),Charge Energy (Wh),Discharge Energy (Wh),Charge Time (s),Discharge Time (s),V_Max_On_Cycle (V),Coulombic Efficiency (%),mAh/g
	05/16/2022 16:49:43.073,178602,60805.8,1,3,-0.000159002,2.499994,-0.000397504,0.003294202,0.002685203,0.01083658,0.007969375,74586.68,60797.77,0,81.51299,,
	05/18/2022 02:15:08.116,298927,58864.6,2,3,-0.0001589991,2.5,-0.000397498,0.002714072,0.00259956,0.008763319,0.007678567,61452.34,58856.87,0,95.7808,,
	05/19/2022 10:41:54.094,415733,57467.1,3,3,-0.0001589982,2.499998,-0.000397495,0.002620433,0.002537953,0.008426801,0.007473641,59331.09,57459.7,0,96.85242,,
	05/19/2022 15:02:50.670,431389,7607.33,4,6,-0.001060084,2.499994,-0.0026502,0.002369508,0.002239736,0.007732884,0.006472981,8048.071,7606.367,0,94.52327,,
	05/19/2022 19:12:55.351,446394,7444.09,5,6,-0.001060002,2.499994,-0.00265,0.002225689,0.002191626,0.007244471,0.006326088,7559.517,7443.112,0,98.46954,,
	05/19/2022 23:19:27.493,461186,7343.21,6,6,-0.001060006,2.49999,-0.00265,0.002192906,0.002161894,0.007135008,0.00623465,7447.927,7342.297,0,98.58582,,
	05/20/2022 03:24:13.188,475872,7293.48,7,6,-0.001059912,2.499994,-0.00264977,0.002176127,0.002147228,0.007077448,0.006193412,7391.23,7292.515,0,98.67197,,
	05/20/2022 07:26:53.689,490432,7231.12,8,6,-0.001059948,2.499996,-0.00264987,0.002157845,0.002128799,0.007015849,0.006138622,7328.414,7230.212,0,98.65395,,
	05/20/2022 11:27:13.183,504851.919,7160.24,9,6,-0.00106005,2.499992,-0.00265012,0.002137147,0.002108082,0.006947057,0.006077323,7258.265,7159.316,0,98.64004,,
	05/20/2022 15:25:27.773,519147,7102.95,10,6,-0.00106007,2.499992,-0.00265017,0.00211708,0.002091327,0.006881452,0.006028415,7190.711,7102.035,0,98.78356,,
	05/20/2022 19:22:13.893,533353,7056.54,11,6,-0.001060071,2.5,-0.00265018,0.002105128,0.002077678,0.006839343,0.005990448,7148.635,7055.603,0,98.69604,,
	05/20/2022 23:16:52.638,547431,6990.922,12,6,-0.00106009,2.499987,-0.00265021,0.002086935,0.002058344,0.006779254,0.005933828,7086.849,6990.022,0,98.63001,,
	05/21/2022 03:08:45.884,561345,6908.19,13,6,-0.001060023,2.499998,-0.00265006,0.002062128,0.00203388,0.006699426,0.005859871,7004.09,6907.331,0,98.63013,,
	05/21/2022 06:58:26.430,575125,6845.63,14,6,-0.001060048,2.499992,-0.00265011,0.002041445,0.002015486,0.006633101,0.005806379,6933.953,6844.774,0,98.72842,,
	05/21/2022 10:46:16.190,588795,6791.53,15,6,-0.001060042,2.499994,-0.0026501,0.002024841,0.001999504,0.006578475,0.005760342,6877.278,6790.687,0,98.74868,,
	05/21/2022 14:32:14.145,602352.881,6738.098,16,6,-0.00106012,2.5,-0.0026503,0.002007545,0.001983875,0.006522453,0.005716175,6818.926,6737.253,0,98.82099,,
	05/21/2022 18:16:47.586,615826,6695.38,17,6,-0.001060088,2.499994,-0.00265021,0.001995599,0.001971306,0.006481639,0.005681077,6777.104,6694.5,0,98.78267,,
	05/21/2022 21:59:04.634,629163,6624.47,18,6,-0.001060045,2.5,-0.00265011,0.001976024,0.001950376,0.006418969,0.005618822,6711.663,6623.634,0,98.70204,,
	05/22/2022 01:39:28.600,642387,6572.89,19,6,-0.00105995,2.499994,-0.00264987,0.001957948,0.001935094,0.006360613,0.005574962,6650.178,6572.042,0,98.83276,,
	05/22/2022 05:18:09.716,655508,6520.15,20,6,-0.00105999,2.499985,-0.00264996,0.001943275,0.001919563,0.006312591,0.005530559,6600.052,6519.319,0,98.77981,,
	05/22/2022 08:55:10.260,668529,6471.05,21,6,-0.00105996,2.499964,-0.00264986,0.001928172,0.00190506,0.00626371,0.005488827,6548.578,6470.25,0,98.80133,,
	05/22/2022 12:30:24.083,681443,6419.7,22,6,-0.001060099,2.499987,-0.00265023,0.001911887,0.001890064,0.006210819,0.005445247,6493.265,6418.878,0,98.85857,,
	05/22/2022 16:04:06.090,694264.826,6372.73,23,6,-0.001060159,2.499996,-0.00265039,0.001898546,0.001876341,0.006167709,0.005407545,6448.366,6371.947,0,98.83041,,
	05/22/2022 19:36:20.683,706999,6327.49,24,6,-0.001060034,2.499989,-0.00265007,0.001886467,0.001862994,0.006126957,0.005369634,6406.235,6326.689,0,98.75574,,
	05/22/2022 23:06:41.589,719620,6274.323,25,6,-0.001060018,2.499998,-0.00265004,0.001868377,0.001847252,0.006069618,0.005323001,6345.72,6273.524,0,98.86935,,
	05/23/2022 02:35:26.850,732146,6226.6,26,6,-0.001059956,2.499989,-0.00264988,0.00185419,0.001833172,0.006023857,0.005282769,6297.822,6225.824,0,98.86643,,
	05/23/2022 06:02:44.818,744584,6183.93,27,6,-0.001059958,2.5,-0.002649895,0.001841148,0.001820569,0.005981285,0.005246696,6253.123,6183.138,0,98.88226,,
	05/23/2022 09:28:27.460,756926,6136.21,28,6,-0.001059995,2.499996,-0.00264998,0.001827139,0.001806536,0.005935818,0.005206383,6205.601,6135.443,0,98.87238,,
	05/23/2022 12:52:43.138,769182,6092.978,29,6,-0.001060006,2.499996,-0.00265001,0.001814141,0.001793898,0.005894271,0.005170367,6161.881,6092.166,0,98.88418,,
	05/23/2022 16:15:27.439,781346,6046.73,30,6,-0.001060009,2.499994,-0.00265002,0.001800957,0.001780198,0.005851449,0.00513114,6116.758,6046.01,0,98.84733,,
	05/23/2022 19:36:46.435,793425.171,6005.33,31,6,-0.001060027,2.499977,-0.00265004,0.001787955,0.001768064,0.005809258,0.00509598,6072.798,6004.569,0,98.88748,,
	05/23/2022 22:56:39.349,805418,5963,32,6,-0.001060025,2.499994,-0.00265006,0.001775089,0.001755582,0.005767615,0.005060507,6029.106,5962.272,0,98.90106,,
	05/24/2022 02:15:09.806,817329,5922.4,33,6,-0.001060045,2.499992,-0.0026501,0.001762753,0.001743633,0.005727761,0.005026234,5987.229,5921.632,0,98.91532,,
	05/24/2022 05:32:16.490,829155,5879.22,34,6,-0.001060023,2.499996,-0.00265005,0.001750779,0.001730937,0.005689068,0.00499003,5946.636,5878.497,0,98.86664,,
	05/24/2022 08:47:57.474,840896,5836.55,35,6,-0.001060028,2.499992,-0.00265006,0.001738143,0.001718378,0.005648097,0.004954157,5903.638,5835.82,0,98.86288,,
	05/24/2022 12:02:23.290,852562,5801.58,36,6,-0.00106,2.499992,-0.00264999,0.001726401,0.001707985,0.005609889,0.004924619,5863.414,5800.804,0,98.93331,,
	05/24/2022 15:15:34.771,864154,5763.56,37,6,-0.001059944,2.49999,-0.00264985,0.001715685,0.001696789,0.005575554,0.004892962,5827.135,5762.814,0,98.89862,,
	05/24/2022 18:27:28.154,875667,5726.93,38,6,-0.001059993,2.499998,-0.00264998,0.001703564,0.001686055,0.005536067,0.004861951,5785.669,5726.233,0,98.97219,,
	05/24/2022 21:38:09.063,887108,5690.04,39,6,-0.001060007,2.499998,-0.00265002,0.001693096,0.001675169,0.005502187,0.004830751,5750.073,5689.304,0,98.94115,,
	05/25/2022 00:47:37.464,898476,5654.22,40,6,-0.001060079,2.499979,-0.00265018,0.001682171,0.001664712,0.005466813,0.004800686,5713.392,5653.504,0,98.96211,,
	05/25/2022 03:56:18.524,909797,5632.63,41,6,-0.001060092,2.499996,-0.00265023,0.001674744,0.001658427,0.005442102,0.004785348,5687.619,5631.902,0,99.0257,,
	05/25/2022 07:04:21.688,921080,5611.74,42,6,-0.001060134,2.499985,-0.00265032,0.001669883,0.001652312,0.005424505,0.004769828,5670.667,5610.995,0,98.94778,,
	05/25/2022 10:10:59.993,932279,5563.91,43,6,-0.001060017,2.499996,-0.00265004,0.001658901,0.001638109,0.005388206,0.004727364,5633.642,5563.19,0,98.74668,,
	05/25/2022 13:15:29.585,943348,5506.2,44,6,-0.001060029,2.499983,-0.00265005,0.001637747,0.001621058,0.005323126,0.004675878,5562.638,5505.463,0,98.98099,,
	05/25/2022 16:18:58.066,954357,5477.54,45,6,-0.001059984,2.499989,-0.00264995,0.001628291,0.001612563,0.005292302,0.004651665,5530.212,5476.838,0,99.03411,,
	05/25/2022 19:21:19.143,965298,5440.54,46,6,-0.001059997,2.499992,-0.00264998,0.001619352,0.001601734,0.005263023,0.004621084,5499.813,5439.84,0,98.912,,
	05/25/2022 22:22:26.381,976165,5404.8,47,6,-0.001059902,2.499996,-0.00264975,0.001608104,0.001591129,0.005226899,0.004590597,5461.708,5404.112,0,98.94446,,
	05/26/2022 01:22:28.578,986967,5373.22,48,6,-0.001059974,2.499985,-0.00264992,0.001598346,0.001581808,0.005195112,0.004563824,5428.243,5372.541,0,98.96533,,
	05/26/2022 04:21:23.441,997702,5339.41,49,6,-0.001059923,2.499992,-0.0026498,0.001588492,0.001571849,0.00516327,0.00453535,5394.703,5338.724,0,98.95225,,
	05/26/2022 07:19:11.849,1.00837e+06,5306.934,50,6,-0.001059956,2.499998,-0.00264989,0.001578512,0.001562283,0.005130894,0.004507974,5360.72,5306.254,0,98.97192,,
	05/26/2022 10:16:05.834,1.01898e+06,5280.33,51,6,-0.001059933,2.499975,-0.00264981,0.001570301,0.00155445,0.005104357,0.004485691,5332.855,5279.603,0,98.99059,,
	05/26/2022 13:11:48.089,1.02953e+06,5244.64,52,6,-0.001059934,2.499998,-0.00264983,0.00155964,0.001543901,0.005069597,0.004455336,5296.533,5243.833,0,98.99088,,
	05/26/2022 16:06:15.553,1.03999e+06,5206.45,53,6,-0.001059902,2.499983,-0.00264974,0.001548895,0.001532587,0.005035192,0.00442176,5260.174,5205.399,0,98.94708,,
	05/26/2022 18:59:41.885,1.0504e+06,5177.25,54,6,-0.001059886,2.5,-0.002649715,0.001539524,0.00152404,0.005004972,0.004397827,5228.192,5176.471,0,98.99425,,
	05/26/2022 21:52:03.220,1.06074e+06,5143.37,55,6,-0.001059939,2.499998,-0.00264985,0.001530368,0.001514095,0.004975368,0.004369284,5197.019,5142.649,0,98.93662,,
	05/27/2022 00:43:17.879,1.07102e+06,5110.12,56,6,-0.001059888,2.499989,-0.00264971,0.001520536,0.001504326,0.004943623,0.004341329,5163.716,5109.403,0,98.93389,,
	05/27/2022 03:33:30.334,1.08123e+06,5081.76,57,6,-0.001059856,2.499998,-0.00264964,0.001510496,0.001495953,0.004911032,0.004317203,5129.624,5081.054,0,99.03719,,
	05/27/2022 06:22:44.547,1.09138e+06,5051.77,58,6,-0.001059902,2.5,-0.002649755,0.001502262,0.001487104,0.004884334,0.004291872,5101.605,5050.929,0,98.99097,,
	05/27/2022 09:10:58.162,1.10148e+06,5021.16,59,6,-0.001059898,2.499987,-0.00264973,0.001493329,0.001478078,0.004855368,0.00426586,5071.282,5020.355,0,98.97876,,
	05/27/2022 11:58:08.919,1.11151e+06,4990.25,60,6,-0.001059884,2.499987,-0.0026497,0.001484025,0.001469034,0.004825346,0.004239657,5039.568,4989.564,0,98.98983,,
	05/27/2022 14:44:24.218,1.12148e+06,4960.98,61,6,-0.001059889,2.499998,-0.00264972,0.001476312,0.001460367,0.0048001,0.004215476,5013.466,4960.154,0,98.91998,,
	05/27/2022 17:29:32.163,1.13139e+06,4928.12,62,6,-0.001059907,2.499987,-0.00264975,0.001466145,0.001450691,0.004767139,0.004187372,4978.967,4927.259,0,98.94596,,
	05/27/2022 20:13:38.159,1.14124e+06,4899.65,63,6,-0.001059897,2.499994,-0.00264974,0.001456275,0.001442328,0.004735424,0.004162935,4945.43,4898.851,0,99.04225,,
	05/27/2022 22:56:48.752,1.15103e+06,4870.14,64,6,-0.001059889,2.5,-0.00264972,0.001448686,0.001433625,0.004711061,0.004137991,4919.634,4869.36,0,98.96035,,
	05/28/2022 01:38:59.450,1.16076e+06,4842.93,65,6,-0.001059907,2.499996,-0.00264976,0.001439052,0.001425586,0.00468011,0.004114442,4886.922,4842.017,0,99.06422,,
	05/28/2022 04:20:14.334,1.17043e+06,4813.06,66,6,-0.001059936,2.499996,-0.00264984,0.001431427,0.00141683,0.004655409,0.00408937,4861,4812.327,0,98.98028,,
	05/28/2022 07:00:28.262,1.18005e+06,4780.81,67,6,-0.001059865,2.499996,-0.00264966,0.001422971,0.001407329,0.004628079,0.004062108,4832.354,4780.03,0,98.90074,,
	05/28/2022 09:39:48.388,1.18961e+06,4757.87,68,6,-0.001059917,2.5,-0.00264979,0.00141388,0.001400587,0.00459868,0.004043229,4801.413,4757.092,0,99.05988,,
	05/28/2022 12:18:25.594,1.19912e+06,4734.78,69,6,-0.001059907,2.499985,-0.00264975,0.00140798,0.001393798,0.004579029,0.004023983,4781.574,4733.972,0,98.99273,,
	05/28/2022 14:56:08.913,1.20859e+06,4706.68,70,6,-0.001059941,2.499996,-0.00264985,0.001400422,0.001385542,0.004554475,0.004000385,4755.828,4705.855,0,98.93742,,
	05/28/2022 17:32:51.086,1217989.822,4677.44,71,6,-0.001059942,2.499983,-0.00264984,0.001391006,0.001376934,0.004523835,0.003975406,4723.927,4676.703,0,98.98838,,
	05/28/2022 20:08:39.289,1227338.025,4650.49,72,6,-0.001059889,2.499994,-0.00264972,0.001383059,0.001368991,0.00449806,0.003952394,4696.938,4649.804,0,98.9828,,
	05/28/2022 22:43:29.132,1236627.868,4623.62,73,6,-0.001059897,2.499998,-0.00264974,0.0013738,0.001361048,0.004468512,0.003929015,4665.37,4622.879,0,99.07179,,
	05/29/2022 01:17:24.371,1.24586e+06,4595.08,74,6,-0.001059914,2.499969,-0.00264975,0.001366162,0.001352656,0.004443809,0.003904669,4639.383,4594.354,0,99.01139,,
	05/29/2022 03:50:24.202,1.25504e+06,4566.83,75,6,-0.001059883,2.499977,-0.00264968,0.001358176,0.001344324,0.004418046,0.003880544,4612.175,4566.042,0,98.98006,,
	05/29/2022 06:22:30.671,1264169.407,4540.17,76,6,-0.00105987,2.49999,-0.00264966,0.001350289,0.001336483,0.004392507,0.003857995,4585.476,4539.429,0,98.97755,,
	05/29/2022 08:53:43.708,1.27324e+06,4514.39,77,6,-0.001059948,2.499994,-0.00264986,0.001342208,0.001328918,0.004366333,0.003836235,4557.893,4513.692,0,99.0098,,
	05/29/2022 11:24:23.907,1282282.643,4499.03,78,6,-0.001059974,2.49999,-0.00264992,0.001336986,0.001324441,0.004348811,0.003824271,4540.343,4498.349,0,99.0617,,
	05/29/2022 13:54:15.300,1.29127e+06,4472.93,79,6,-0.001059979,2.5,-0.00264995,0.001330238,0.001316797,0.004326675,0.003802068,4517.681,4472.238,0,98.98959,,
	05/29/2022 16:23:08.967,1.30021e+06,4443.68,80,6,-0.001060018,2.499994,-0.00265004,0.001321794,0.001308227,0.004299553,0.003776932,4489.254,4442.995,0,98.97366,,
	05/29/2022 18:51:12.238,1.30909e+06,4418.9,81,6,-0.001059978,2.499994,-0.00264994,0.001314189,0.001300896,0.004274981,0.003756367,4463.598,4418.164,0,98.98852,,
	05/29/2022 21:18:30.148,1.31793e+06,4396.63,82,6,-0.001059947,2.499998,-0.00264987,0.001307399,0.001294357,0.004252561,0.003737482,4440.514,4395.948,0,99.00243,,
	05/29/2022 23:44:56.742,1.32672e+06,4371.54,83,6,-0.001059911,2.499996,-0.00264977,0.001299768,0.001286866,0.004227984,0.00371593,4414.248,4370.805,0,99.00736,,
	05/30/2022 02:10:38.157,1.33546e+06,4350.29,84,6,-0.001059897,2.499992,-0.00264973,0.00129277,0.001280549,0.004205234,0.003697502,4390.254,4349.461,0,99.05466,,
	05/30/2022 04:35:33.332,1.34415e+06,4327.23,85,6,-0.001059865,2.499979,-0.00264964,0.001286028,0.001273794,0.004183513,0.003677838,4367.254,4326.557,0,99.04871,,
	05/30/2022 06:59:48.449,1.35281e+06,4307.71,86,6,-0.001059877,2.499994,-0.00264969,0.00127996,0.001268064,0.004163924,0.003661365,4346.604,4307.054,0,99.07061,,
	05/30/2022 09:23:13.428,1.36141e+06,4280.25,87,6,-0.001059912,2.49999,-0.00264977,0.001273298,0.00126,0.004142098,0.003638177,4323.956,4279.612,0,98.95562,,
	05/30/2022 11:45:53.483,1.36997e+06,4259.33,88,6,-0.001059916,2.5,-0.00264979,0.001266215,0.001253866,0.004119047,0.00362053,4300.041,4258.619,0,99.02473,,
	05/30/2022 14:07:43.836,1.37848e+06,4234.69,89,6,-0.001059964,2.499989,-0.0026499,0.001258735,0.001246641,0.004094702,0.003599419,4274.957,4233.908,0,99.03918,,
	05/30/2022 16:28:48.977,1.38695e+06,4211.636,90,6,-0.001059979,2.49999,-0.00264994,0.001252141,0.001239888,0.004073551,0.00357979,4252.763,4210.882,0,99.02142,,
	05/30/2022 18:49:08.546,1.39537e+06,4189.3,91,6,-0.00105996,2.499994,-0.00264989,0.001245324,0.001233319,0.004051499,0.003560638,4229.585,4188.683,0,99.03595,,
	05/30/2022 21:08:45.563,1.40374e+06,4165.97,92,6,-0.001059926,2.499994,-0.00264981,0.001239664,0.001226402,0.004032902,0.003540949,4210.279,4165.298,0,98.9302,,
	05/30/2022 23:27:34.161,1.41207e+06,4144.39,93,6,-0.001059956,2.49999,-0.00264988,0.001231826,0.001220015,0.0040075,0.00352271,4183.526,4143.73,0,99.04118,,
	05/31/2022 01:45:39.655,1.42036e+06,4121.11,94,6,-0.001059895,2.499975,-0.00264971,0.001226057,0.001213139,0.003988656,0.003502886,4163.702,4120.469,0,98.94634,,
	05/31/2022 04:02:56.972,1.4286e+06,4099.65,95,6,-0.001059948,2.5,-0.00264987,0.001218215,0.001206811,0.003963273,0.00348445,4136.987,4098.943,0,99.06385,,
	05/31/2022 06:19:33.860,1.43679e+06,4079.25,96,6,-0.001059895,2.499994,-0.00264973,0.001212316,0.001200798,0.003944091,0.003467036,4116.978,4078.56,0,99.04986,,
	05/31/2022 08:35:30.948,1.44495e+06,4059.82,97,6,-0.001059888,2.499985,-0.0026497,0.001206307,0.001195096,0.003924605,0.003450385,4096.53,4059.174,0,99.07064,,
	05/31/2022 10:50:50.646,1453069.382,4039.37,98,6,-0.001059975,2.499998,-0.00264994,0.001201314,0.001189101,0.003908354,0.003433415,4079.654,4038.661,0,98.9833,,
	05/31/2022 13:05:16.038,1.46113e+06,4011.47,99,6,-0.001059965,2.499996,-0.00264991,0.001193425,0.001180953,0.003882757,0.003409376,4053.154,4010.855,0,98.95495,,
	05/31/2022 15:18:56.458,1.46916e+06,3991.02,100,6,-0.001059976,2.499992,-0.00264993,0.001186182,0.001174919,0.003859423,0.003391792,4028.654,3990.38,0,99.05046,,
	05/31/2022 17:31:57.087,1.47714e+06,3970.72,101,6,-0.001059992,2.499996,-0.00264998,0.001180468,0.001168966,0.00384073,0.00337484,4009.214,3970.087,0,99.02569,,
	05/31/2022 19:44:18.011,1.48508e+06,3949.61,102,6,-0.001059969,2.499977,-0.0026499,0.001174957,0.001162706,0.003822784,0.003356866,3990.598,3948.871,0,98.95734,,
	05/31/2022 21:56:00.201,1.49298e+06,3931.46,103,6,-0.00106,2.499994,-0.00264999,0.001168904,0.001157379,0.003803088,0.003342047,3970.038,3930.793,0,99.01399,,
	06/01/2022 00:06:58.107,1.50084e+06,3910.27,104,6,-0.001059916,2.499983,-0.00264977,0.001162148,0.001151099,0.003780886,0.00332331,3946.928,3909.662,0,99.04929,,
	06/01/2022 02:17:20.565,1.50866e+06,3892.84,105,6,-0.001059921,2.499998,-0.0026498,0.001156899,0.001145942,0.003764009,0.003308448,3928.954,3892.191,0,99.05289,,
	06/01/2022 04:27:04.115,1.51644e+06,3873.05,106,6,-0.001059948,2.49999,-0.00264986,0.001151287,0.001140145,0.003745777,0.003291627,3909.791,3872.423,0,99.03223,,
	06/01/2022 06:36:12.047,1.52419e+06,3855.26,107,6,-0.001059916,2.499992,-0.00264978,0.00114604,0.001134881,0.003728762,0.003276269,3892.033,3854.588,0,99.02632,,
	06/01/2022 08:44:38.677,1.5319e+06,3834.95,108,6,-0.001059931,2.499994,-0.00264982,0.001139892,0.001128884,0.003708588,0.003259096,3871.004,3834.229,0,99.03426,,
	06/01/2022 10:52:24.945,1.53956e+06,3812.81,109,6,-0.001059997,2.499994,-0.00264999,0.001134475,0.001122448,0.003691065,0.0032404,3852.795,3812.161,0,98.93987,,
	06/01/2022 12:59:30.964,1.54719e+06,3795.97,110,6,-0.00106002,2.499987,-0.00265004,0.001127445,0.001117542,0.003668396,0.003226268,3829.304,3795.381,0,99.1217,,
	06/01/2022 15:06:01.390,1.55478e+06,3776.04,111,6,-0.00105999,2.49999,-0.00264996,0.001122855,0.001111629,0.003653042,0.003208788,3813.689,3775.426,0,99.00029,,
	06/01/2022 17:11:48.654,1.56233e+06,3755.19,112,6,-0.00106,2.499998,-0.00265,0.001116319,0.001105524,0.003632277,0.003191087,3791.391,3754.62,0,99.03298,,
	06/01/2022 19:17:00.970,1.56984e+06,3737.07,113,6,-0.001059964,2.499992,-0.0026499,0.001111323,0.001100171,0.003615756,0.003175662,3774.565,3736.505,0,98.99644,,
	06/01/2022 21:21:30.159,1.57731e+06,3716.87,114,6,-0.001060007,2.499994,-0.00265001,0.001104617,0.00109422,0.00359424,0.003158129,3751.682,3716.252,0,99.05875,,
	06/01/2022 23:25:32.304,1584751.04,3703.26,115,6,-0.001060006,2.499994,-0.00265001,0.001100613,0.001090138,0.003580842,0.003146602,3738.186,3702.476,0,99.04828,,
	06/02/2022 01:28:52.285,1.59215e+06,3681.8,116,6,-0.001059941,2.499992,-0.00264984,0.00109451,0.001083813,0.003561051,0.003128167,3717.273,3681.052,0,99.02266,,
	06/02/2022 03:31:37.053,1599515.789,3665.138,117,6,-0.001059912,2.499994,-0.00264977,0.001089151,0.001078917,0.003543702,0.003114012,3698.9,3664.475,0,99.06031,,
	06/02/2022 05:33:45.456,1.60684e+06,3645.74,118,6,-0.001059917,2.499998,-0.00264979,0.00108416,0.001073102,0.003527341,0.003097373,3681.852,3644.867,0,98.98002,,
	06/02/2022 07:35:19.065,1.61414e+06,3629.19,119,6,-0.001059844,2.499992,-0.0026496,0.00107882,0.001068279,0.003510057,0.003083286,3663.636,3628.5,0,99.02296,,
	06/02/2022 09:36:18.134,1.6214e+06,3612.87,120,6,-0.001059889,2.5,-0.00264972,0.001073511,0.0010635,0.003492653,0.003069474,3645.511,3612.301,0,99.06743,,
	06/02/2022 11:36:40.513,1.62862e+06,3593.418,121,6,-0.001059914,2.499994,-0.00264978,0.001068391,0.001057751,0.003476004,0.003052674,3628.184,3592.647,0,99.00417,,
	06/02/2022 13:36:27.202,1.63581e+06,3575.57,122,6,-0.001059992,2.499981,-0.00264996,0.001063057,0.001052564,0.003458836,0.003037716,3610.261,3574.882,0,99.01296,,
	06/02/2022 15:35:37.894,1.64296e+06,3557.96,123,6,-0.00106,2.499994,-0.00264999,0.001057663,0.001047409,0.003441311,0.003022622,3592.045,3557.277,0,99.03053,,
	06/02/2022 17:34:16.300,1.65008e+06,3541.35,124,6,-0.001059992,2.499994,-0.00264997,0.001052953,0.00104248,0.003425892,0.003008774,3576.26,3540.562,0,99.00542,,
	06/02/2022 19:32:14.799,1.65715e+06,3522.22,125,6,-0.001059992,2.49999,-0.00264997,0.001046858,0.001036865,0.003406029,0.002991902,3555.469,3521.563,0,99.04543,,
	06/02/2022 21:29:35.528,1.66419e+06,3503.77,126,6,-0.001059912,2.5,-0.00264978,0.001041235,0.001031413,0.003387981,0.002976221,3536.268,3503.182,0,99.05669,,
	06/02/2022 23:26:30.104,1.67121e+06,3490.49,127,6,-0.001059934,2.499998,-0.00264983,0.001037453,0.001027424,0.003375476,0.002964967,3523.19,3489.715,0,99.03331,,
	06/03/2022 01:22:53.371,1678192.107,3475.07,128,6,-0.001059912,2.499975,-0.00264975,0.001032783,0.00102294,0.003360234,0.002951931,3507.345,3474.444,0,99.04692,,
	06/03/2022 03:18:44.398,1.68514e+06,3458.97,129,6,-0.001059898,2.499998,-0.00264974,0.001028107,0.001018225,0.003344994,0.002938296,3491.382,3458.414,0,99.03883,,
	06/03/2022 05:14:02.968,1.69206e+06,3443.2,130,6,-0.001059914,2.499981,-0.00264976,0.00102317,0.001013477,0.003328893,0.00292451,3474.576,3442.359,0,99.05266,,
	06/03/2022 07:08:50.714,1.69895e+06,3428.75,131,6,-0.001059902,2.499981,-0.00264973,0.001018345,0.001009287,0.003313225,0.002912241,3458.205,3428.102,0,99.11052,,
	06/03/2022 09:03:07.356,1.70581e+06,3410.64,132,6,-0.001059914,2.499996,-0.00264978,0.001014542,0.001003904,0.003300818,0.00289687,3445.28,3409.848,0,98.95143,,
	06/03/2022 10:56:44.738,1.71262e+06,3392.755,133,6,-0.001059891,2.499998,-0.00264973,0.001008223,0.0009986581,0.003280257,0.002881521,3423.877,3391.984,0,99.05134,,
	06/03/2022 12:49:51.510,1.71941e+06,3376.93,134,6,-0.001059931,2.499996,-0.00264982,0.001003838,0.0009940726,0.003266041,0.002868227,3408.99,3376.311,0,99.02719,,
	06/03/2022 14:42:27.837,1.72617e+06,3362.04,135,6,-0.001059981,2.499981,-0.00264993,0.0009992523,0.0009897267,0.003251143,0.0028556,3393.566,3361.436,0,99.04674,,
	06/03/2022 16:34:23.128,1.73288e+06,3341.77,136,6,-0.001059964,2.499975,-0.00264988,0.0009931338,0.000983733,0.003231406,0.002837787,3372.932,3341.046,0,99.05343,,
	06/03/2022 18:25:51.289,1739570.025,3328.62,137,6,-0.001059939,2.499975,-0.00264982,0.0009889455,0.0009798183,0.003217651,0.002826556,3358.704,3327.79,0,99.07707,,
	06/03/2022 20:16:51.321,1.74623e+06,3315.27,138,6,-0.001059914,2.499994,-0.00264978,0.0009847492,0.0009759756,0.003204006,0.002815432,3344.317,3314.827,0,99.10905,,
	06/03/2022 22:07:29.474,1.75287e+06,3302.65,139,6,-0.001059895,2.499994,-0.00264973,0.0009820451,0.0009721249,0.003195115,0.002804428,3334.952,3301.908,0,98.98984,,
	06/03/2022 23:57:32.941,1.75947e+06,3286.68,140,6,-0.001059903,2.499994,-0.00264975,0.0009765537,0.0009675137,0.003177068,0.002791039,3316.297,3286.254,0,99.0743,,
	06/04/2022 01:47:08.363,1.76605e+06,3272.83,141,6,-0.001059869,2.499989,-0.00264966,0.0009723601,0.0009633562,0.003163472,0.002778958,3302.01,3272.084,0,99.07401,,
	06/04/2022 03:36:16.737,1.7726e+06,3257.97,142,6,-0.001059912,2.499996,-0.00264978,0.000968745,0.0009590575,0.003151761,0.0027666,3289.698,3257.526,0,99,,
	06/04/2022 05:24:52.335,1779111.071,3243.55,143,6,-0.001060175,2.5,-0.00265044,0.0009634247,0.0009547668,0.003134419,0.002754027,3271.6,3242.973,0,99.10133,,
	06/04/2022 07:13:00.911,1.7856e+06,3229.78,144,6,-0.001059833,2.5,-0.00264958,0.0009593508,0.0009507055,0.00312101,0.002742169,3257.957,3229.192,0,99.09883,,
	06/04/2022 09:00:41.665,1.79206e+06,3214.35,145,6,-0.00105986,2.499994,-0.00264964,0.000955798,0.0009461861,0.00310958,0.002729122,3245.731,3213.798,0,98.99435,,
	06/04/2022 10:47:50.144,1.79849e+06,3200.21,146,6,-0.001059903,2.499992,-0.00264975,0.0009505391,0.0009420787,0.003092594,0.002716993,3227.85,3199.814,0,99.10994,,
	06/04/2022 12:34:32.566,1.80489e+06,3186.39,147,6,-0.001059931,2.5,-0.00264983,0.0009468672,0.0009379624,0.003080574,0.002705049,3215.442,3185.798,0,99.05956,,
	06/04/2022 14:20:45.175,1.81126e+06,3170.8,148,6,-0.001059894,2.499998,-0.00264973,0.0009426495,0.000933454,0.003066788,0.002691973,3201.194,3170.422,0,99.02451,,
	06/04/2022 16:06:21.425,1.8176e+06,3153.34,149,6,-0.001060016,2.499996,-0.00265004,0.0009370784,0.0009283295,0.003048919,0.002676807,3182.466,3152.927,0,99.06636,,
	06/04/2022 17:51:28.958,1.82391e+06,3139.39,150,6,-0.001059941,2.499992,-0.00264984,0.000932691,0.0009241833,0.003034656,0.002664759,3167.649,3138.873,0,99.08783,,
	06/04/2022 19:36:10.455,1.83019e+06,3125.71,151,6,-0.001059951,2.499983,-0.00264986,0.0009290373,0.0009201621,0.003022747,0.00265312,3155.11,3125.211,0,99.04468,,
	06/04/2022 21:20:22.122,1.83644e+06,3111.62,152,6,-0.001059974,2.499996,-0.00264993,0.0009244572,0.0009160309,0.003007825,0.002641204,3139.603,3111.176,0,99.08852,,
	06/04/2022 23:04:10.576,1.84267e+06,3099.76,153,6,-0.001059933,2.499987,-0.00264982,0.0009211249,0.0009124945,0.002996883,0.002630892,3128.265,3099.222,0,99.06306,,
	06/05/2022 00:47:29.448,1.84887e+06,3084.98,154,6,-0.001059967,2.499994,-0.00264991,0.0009166743,0.000908171,0.002982513,0.002618286,3113.178,3084.481,0,99.07237,,
	06/05/2022 02:30:23.410,1.85504e+06,3073.1,155,6,-0.001059875,2.499994,-0.00264968,0.0009128884,0.0009046671,0.002970143,0.00260821,3100.352,3072.689,0,99.09943,,
	06/05/2022 04:12:53.299,1.86119e+06,3060.55,156,6,-0.001059939,2.499975,-0.00264982,0.0009095364,0.0009009595,0.002959215,0.002597458,3088.871,3060.055,0,99.05699,,
	06/05/2022 05:54:51.737,1.86731e+06,3045.28,157,6,-0.001059953,2.499994,-0.00264988,0.0009047497,0.0008964451,0.002943652,0.002584317,3072.588,3044.737,0,99.08211,,
	06/05/2022 07:36:28.100,1.87341e+06,3034.44,158,6,-0.001059941,2.499994,-0.00264985,0.0009014301,0.0008932629,0.00293281,0.002575133,3061.36,3033.931,0,99.09397,,
	06/05/2022 09:17:42.123,1.87948e+06,3023.67,159,6,-0.001059895,2.499998,-0.00264974,0.0008980737,0.0008901286,0.002921831,0.002566262,3049.868,3023.298,0,99.11532,,
	06/05/2022 10:58:28.954,1.88553e+06,3009.45,160,6,-0.001059948,2.499981,-0.00264985,0.0008942451,0.0008858846,0.002909303,0.002553795,3036.92,3008.866,0,99.06509,,
	06/05/2022 12:38:45.326,1.89154e+06,2993.502,161,6,-0.001059944,2.499998,-0.00264986,0.0008899613,0.0008811803,0.002895418,0.002540049,3022.356,2992.907,0,99.01334,,
	06/05/2022 14:18:34.876,1897533.612,2980.95,162,6,-0.001059937,2.5,-0.00264984,0.0008857442,0.0008775616,0.002881609,0.002529553,3008.108,2980.53,0,99.07619,,
	06/05/2022 15:57:57.378,1.9035e+06,2967.83,163,6,-0.001060002,2.499994,-0.00265,0.0008816373,0.0008737118,0.002868445,0.002518298,2994.217,2967.386,0,99.10105,,
	06/05/2022 17:36:58.156,1.90944e+06,2957.3,164,6,-0.001059956,2.499975,-0.00264986,0.0008783322,0.0008705548,0.002857576,0.002509158,2982.959,2956.773,0,99.11452,,
	06/05/2022 19:15:33.419,1915352.155,2944.3,165,6,-0.00106,2.499994,-0.00264999,0.0008746875,0.0008667778,0.002845684,0.002498095,2970.518,2943.889,0,99.09571,,
	06/05/2022 20:53:44.080,1.92124e+06,2932.91,166,6,-0.001059937,2.499985,-0.00264983,0.0008707705,0.0008634203,0.002833139,0.002488204,2957.28,2932.488,0,99.1559,,
	06/05/2022 22:31:34.683,1.92711e+06,2921.29,167,6,-0.001059946,2.499975,-0.00264984,0.0008682632,0.0008599721,0.002824922,0.002478416,2948.701,2920.78,0,99.0451,,
	06/06/2022 00:08:58.507,1.93296e+06,2908.854,168,6,-0.001059933,2.499998,-0.00264983,0.0008640452,0.0008563368,0.002811125,0.002467847,2934.442,2908.477,0,99.10786,,
	06/06/2022 01:45:55.868,1.93877e+06,2895.58,169,6,-0.001059939,2.499979,-0.00264983,0.0008602324,0.0008523909,0.002798689,0.002456284,2921.352,2895.162,0,99.08845,,
	06/06/2022 03:22:33.892,1.94457e+06,2886.6,170,6,-0.001059883,2.499985,-0.00264969,0.0008571972,0.000849709,0.002788926,0.002448522,2910.923,2886.131,0,99.12644,,
	06/06/2022 04:58:49.742,1.95035e+06,2876.47,171,6,-0.001059838,2.5,-0.002649595,0.0008536309,0.0008467669,0.002777328,0.002440013,2898.88,2876.182,0,99.19591,,
	06/06/2022 06:34:40.507,1.9561e+06,2860.8,172,6,-0.001060138,2.499958,-0.0026503,0.0008507722,0.0008421907,0.002767856,0.002426654,2889.501,2860.263,0,98.99133,,
	06/06/2022 08:10:10.516,1961829.252,2852.6,173,6,-0.0010599,2.499996,-0.00264975,0.0008469442,0.0008396776,0.002755497,0.002419508,2876.748,2852.036,0,99.14202,,
	06/06/2022 09:45:17.679,1967536.415,2841.59,174,6,-0.001059861,2.499987,-0.00264964,0.0008434562,0.0008364419,0.002744084,0.002409905,2864.78,2841.035,0,99.16839,,
	06/06/2022 11:20:00.529,1.97322e+06,2827.95,175,6,-0.001059907,2.5,-0.00264977,0.0008405032,0.000832481,0.002734456,0.00239851,2854.197,2827.492,0,99.04554,,
	06/06/2022 12:54:17.751,1.97888e+06,2816.86,176,6,-0.001059909,2.499994,-0.00264977,0.0008362316,0.0008291875,0.002720634,0.002388741,2839.83,2816.265,0,99.15763,,
	06/06/2022 14:28:11.456,1.98451e+06,2803.936,177,6,-0.00105996,2.499996,-0.0026499,0.0008330484,0.0008254116,0.002710377,0.002377763,2829.132,2803.432,0,99.08327,,
	06/06/2022 16:01:45.326,1.99012e+06,2794.57,178,6,-0.001059986,2.499979,-0.00264994,0.0008299673,0.0008226372,0.002700202,0.002369888,2818.705,2794.007,0,99.11681,,
	06/06/2022 17:35:02.135,1.99572e+06,2786.98,179,6,-0.001059969,2.499994,-0.00264992,0.0008270897,0.0008204678,0.002690813,0.002363812,2808.992,2786.541,0,99.19938,,
	06/06/2022 19:08:04.279,2.0013e+06,2778.8,180,6,-0.001059942,2.499989,-0.00264984,0.0008252659,0.0008180324,0.002684671,0.002356916,2802.845,2778.282,0,99.12349,,
	06/06/2022 20:40:45.911,2.00686e+06,2767.6,181,6,-0.001059969,2.499989,-0.00264991,0.0008224637,0.0008147402,0.002675425,0.002347504,2793.398,2767.086,0,99.06094,,
	06/06/2022 22:12:57.891,2.0124e+06,2753.53,182,6,-0.001059888,2.499998,-0.00264972,0.0008179403,0.0008104768,0.0026608,0.002334624,2777.908,2752.762,0,99.08752,,
	06/06/2022 23:44:43.229,2.0179e+06,2740.512,183,6,-0.001059865,2.499994,-0.00264966,0.000814,0.0008067084,0.002648329,0.00232361,2764.334,2740.01,0,99.10423,,
	06/07/2022 01:16:07.316,2.02339e+06,2729.63,184,6,-0.001059858,2.499989,-0.00264963,0.0008109941,0.0008034984,0.002638469,0.002314375,2754.051,2729.138,0,99.07574,,
	06/07/2022 02:47:05.374,2.02884e+06,2717.63,185,6,-0.001059879,2.499994,-0.00264969,0.0008068238,0.0007999648,0.00262473,0.002304175,2739.85,2717.177,0,99.14988,,
	06/07/2022 04:17:49.967,2.03429e+06,2711.33,186,6,-0.001059847,2.5,-0.00264962,0.000804628,0.0007981325,0.002617703,0.002298774,2732.735,2710.741,0,99.19273,,
	06/07/2022 05:48:14.804,2.03971e+06,2700.68,187,6,-0.001059822,2.499983,-0.00264954,0.0008019538,0.0007950818,0.002608937,0.002289916,2723.576,2700.259,0,99.1431,,
	06/07/2022 07:18:21.106,2.04512e+06,2691.07,188,6,-0.001060113,2.49999,-0.00265027,0.0007992416,0.0007922684,0.002600428,0.002281713,2714.685,2690.621,0,99.12752,,
	06/07/2022 08:48:03.804,2.0505e+06,2679.63,189,6,-0.001059875,2.499996,-0.00264968,0.0007956398,0.0007887707,0.002588428,0.00227156,2702.503,2679.139,0,99.13667,,
	06/07/2022 10:17:23.487,2.05586e+06,2668.07,190,6,-0.001059889,2.499998,-0.00264972,0.000792455,0.0007853753,0.002577986,0.002261706,2691.083,2667.594,0,99.10661,,
	06/07/2022 11:46:20.496,2.0612e+06,2657.06,191,6,-0.001059969,2.499989,-0.00264991,0.000788981,0.0007821106,0.002566745,0.002252168,2679.331,2656.386,0,99.1292,,
	06/07/2022 13:15:07.355,2.06653e+06,2651.95,192,6,-0.001059911,2.49999,-0.00264977,0.0007874519,0.0007806866,0.002561487,0.002248254,2674.334,2651.508,0,99.14086,,
	06/07/2022 14:43:26.633,2071825.369,2639.01,193,6,-0.00105995,2.499989,-0.00264986,0.0007831668,0.0007768496,0.002547928,0.002236787,2659.731,2638.5,0,99.19338,,
	06/07/2022 16:11:27.530,2.07711e+06,2628.56,194,6,-0.001059967,2.49999,-0.00264991,0.0007808174,0.0007738343,0.00254021,0.002228075,2651.834,2628.228,0,99.10567,,
	06/07/2022 17:39:03.823,2.08236e+06,2616.46,195,6,-0.00105993,2.499985,-0.00264981,0.0007771874,0.0007702668,0.002528463,0.002217739,2639.475,2616.112,0,99.10954,,
	06/07/2022 19:06:23.628,2087602.364,2609.1,196,6,-0.001059921,2.499992,-0.00264979,0.0007744636,0.0007679687,0.002519643,0.002211069,2630.154,2608.345,0,99.16136,,
	06/07/2022 20:33:24.380,2.09282e+06,2598.63,197,6,-0.001059907,2.499998,-0.00264977,0.0007719158,0.0007649669,0.002511383,0.002202397,2621.565,2598.192,0,99.09979,,
	06/07/2022 22:00:05.156,2.09802e+06,2589.73,198,6,-0.001059933,2.499975,-0.00264981,0.0007686918,0.0007623473,0.002500734,0.002194824,2610.473,2589.317,0,99.17464,,
	06/07/2022 23:26:28.665,2.10321e+06,2581.01,199,6,-0.001059897,2.499998,-0.00264974,0.000766258,0.0007597443,0.002492887,0.002187248,2602.118,2580.495,0,99.14993,,
	06/08/2022 00:52:33.748,2.10837e+06,2572.02,200,6,-0.001059869,2.499985,-0.00264966,0.000763396,0.0007571035,0.002483586,0.002179602,2592.385,2571.58,0,99.17573,,