File: Cell-test-data/SiMP-LFP-PFOF10/JB4_SiMP-LFP-PFOF10_03C_Channel_88_StatisticByStep.CSV
Date_Time                    ,Test Time (s),Step Time (s),Cycle Index,Step Index,Current (A),Voltage (V),Power (W),Charge Capacity (Ah),Discharge Capacity (Ah),Charge Energy (Wh),Discharge Energy (Wh),Charge Time (s),Discharge Time (s),V_Max_On_Cycle (V),Coulombic Efficiency (%),mAh/g
	07/20/2022 02:35:03.135,43200,43200,1.00,1.00,0,0.1841488,0,0,0,0,0,0,0,0,0,,
	07/21/2022 16:23:26.956,179304,61170.3,1.00,3.00,-0.0001590014,2.499974,-0.000397499,0.003309002,0.00270143,0.01095458,0.008020845,74923.49,61162.59,0,81.63881,,
	07/23/2022 01:46:23.350,299480,58393,2.00,3.00,-0.0001590085,2.499997,-0.000397521,0.00272832,0.002578686,0.008813834,0.007631154,61775.23,58385.34,0,94.51553,,
	07/24/2022 09:46:27.120,414684,56468.2,3.00,3.00,-0.0001590094,2.499932,-0.000397513,0.002593741,0.002493757,0.008349717,0.007354426,58727.75,56460.96,0,96.14517,,
	07/24/2022 14:00:31.467,429928,7352.99,4.00,6.00,-0.00106015,2.499988,-0.00265036,0.00232323,0.002164739,0.007601758,0.00626613,7890.226,7351.985,0,93.17799,,
	07/24/2022 18:01:36.169,444393,7155.69,5.00,6.00,-0.001060104,2.499995,-0.00265025,0.002151829,0.002106904,0.00702265,0.006095096,7307.982,7154.772,0,97.91222,,
	07/24/2022 21:57:39.684,458557,7002.08,6.00,6.00,-0.001059866,2.499982,-0.00264965,0.002108359,0.00206159,0.006878331,0.005959537,7160.491,7001.16,0,97.78174,,
	07/25/2022 01:49:07.252,472444,6869.59,7.00,6.00,-0.001060175,2.499978,-0.00265041,0.002066115,0.002022384,0.006742073,0.005845229,7016.964,6868.698,0,97.88342,,
	07/25/2022 05:36:18.306,486075,6742.2,8.00,6.00,-0.00105987,2.499999,-0.00264967,0.002028125,0.001985138,0.006618698,0.00573728,6887.912,6741.328,0,97.88046,,
	07/25/2022 09:19:19.996,499457,6618.74,9.00,6.00,-0.001060145,2.499963,-0.00265032,0.001991039,0.001948743,0.006498407,0.005632661,6762.005,6617.878,0,97.87569,,
	07/25/2022 12:58:24.949,512602,6504.67,10.00,6.00,-0.001059837,2.499913,-0.0026495,0.001954892,0.001915054,0.006381062,0.005535607,6639.37,6503.785,0,97.96216,,
	07/25/2022 16:34:04.505,525541,6400.28,11.00,6.00,-0.001060083,2.49994,-0.00265014,0.001925184,0.001884458,0.006284213,0.00545117,6538.3,6399.474,0,97.88455,,
	07/25/2022 20:05:54.395,538251,6286.04,12.00,6.00,-0.001060145,2.499976,-0.00265034,0.00189125,0.001850833,0.006173163,0.005354657,6422.98,6285.208,0,97.86294,,
	07/25/2022 23:33:38.386,550715,6168.07,13.00,6.00,-0.001059846,2.49997,-0.00264958,0.001853511,0.001815999,0.006052353,0.005253395,6295.031,6167.259,0,97.97616,,
	07/26/2022 02:57:47.311,562964,6064.24,14.00,6.00,-0.001060097,2.49994,-0.00265018,0.001820822,0.001785383,0.005946877,0.005165492,6183.891,6063.454,0,98.05368,,
	07/26/2022 06:18:25.585,575002,5956.72,15.00,6.00,-0.00106012,2.499963,-0.00265026,0.001790445,0.001753753,0.005848738,0.005074982,6080.711,5955.925,0,97.95071,,
	07/26/2022 09:35:34.713,586832,5856.44,16.00,6.00,-0.001059892,2.499974,-0.0026497,0.001758381,0.00172399,0.005745033,0.004989523,5971.858,5855.659,0,98.04412,,
	07/26/2022 12:49:35.790,598473,5765.31,17.00,6.00,-0.001060143,2.499974,-0.00265033,0.001729861,0.001697506,0.005652902,0.004914666,5874.942,5764.567,0,98.12958,,
	07/26/2022 16:01:04.513,609961,5695.05,18.00,6.00,-0.001060104,2.499986,-0.00265025,0.001705709,0.001676815,0.005573775,0.004857805,5792.876,5694.315,0,98.30599,,
	07/26/2022 19:10:03.342,621300,5617.04,19.00,6.00,-0.001060148,2.49989,-0.00265025,0.001684528,0.001653853,0.005503809,0.004792289,5720.985,5616.303,0,98.17898,,
	07/26/2022 22:15:37.769,632435,5513.31,20.00,6.00,-0.001059871,2.499848,-0.00264952,0.00165489,0.001623166,0.005409112,0.00470252,5620.338,5512.598,0,98.08302,,
	07/27/2022 01:18:16.730,643394,5430.63,21.00,6.00,-0.001059843,2.499959,-0.00264956,0.001627524,0.001598628,0.005320798,0.004632167,5527.556,5429.932,0,98.22449,,
	07/27/2022 04:18:18.201,654195,5354.82,22.00,6.00,-0.001059878,2.499938,-0.00264963,0.001603457,0.001576335,0.005242733,0.004568274,5445.896,5354.158,0,98.30858,,
	07/27/2022 07:15:52.729,664850,5284.3,23.00,6.00,-0.001059904,2.499997,-0.00264976,0.001580971,0.001555581,0.005169726,0.004508784,5369.5,5283.604,0,98.39405,,
	07/27/2022 10:11:09.281,675366,5216.11,24.00,6.00,-0.00105987,2.499993,-0.00264967,0.001560415,0.001535488,0.005103122,0.0044509,5299.733,5215.426,0,98.4025,,
	07/27/2022 13:04:02.512,685739,5142.02,25.00,6.00,-0.001060161,2.499995,-0.0026504,0.001540011,0.001513851,0.005036826,0.004388964,5230.453,5141.349,0,98.30131,,
	07/27/2022 15:54:57.453,695994,5090.56,26.00,6.00,-0.001060127,2.49997,-0.00265029,0.001520386,0.001498759,0.004973007,0.00434725,5163.653,5089.892,0,98.57755,,
	07/27/2022 18:44:12.907,706150,5035.64,27.00,6.00,-0.001060132,2.499938,-0.00265026,0.001507299,0.001482679,0.004929041,0.004302863,5119.068,5034.971,0,98.36665,,
	07/27/2022 21:30:52.271,716149,4957.49,28.00,6.00,-0.001059837,2.499928,-0.00264952,0.001484342,0.001459451,0.004854455,0.004233421,5041.206,4956.828,0,98.32308,,
	07/28/2022 00:15:04.365,726001,4889.2,29.00,6.00,-0.00105987,2.49999,-0.00264966,0.001461042,0.001439291,0.004780415,0.004174699,4962.198,4888.621,0,98.51128,,
	07/28/2022 02:57:17.511,735734,4831.01,30.00,6.00,-0.001059859,2.499913,-0.00264956,0.001443142,0.001422174,0.004722355,0.004125005,4901.446,4830.421,0,98.54707,,
	07/28/2022 05:37:29.922,745347,4770.62,31.00,6.00,-0.001059854,2.499984,-0.00264962,0.001425408,0.00140434,0.004665149,0.004073438,4841.075,4769.891,0,98.522,,
	07/28/2022 08:15:47.333,754844,4712.25,32.00,6.00,-0.001060156,2.499953,-0.00265034,0.001408629,0.001387153,0.004610537,0.00402417,4784.064,4711.541,0,98.47544,,
	07/28/2022 10:52:11.207,764228,4659.78,33.00,6.00,-0.001059836,2.499959,-0.00264955,0.001390734,0.001371606,0.004552501,0.003979025,4723.199,4658.841,0,98.62468,,
	07/28/2022 13:26:48.271,773505,4603.42,34.00,6.00,-0.001060117,2.499963,-0.00265025,0.0013758,0.001355158,0.004504026,0.003931907,4672.64,4602.491,0,98.49968,,
	07/28/2022 15:59:53.252,782690,4558.66,35.00,6.00,-0.00106012,2.499953,-0.00265025,0.001362008,0.001342211,0.004458854,0.003896411,4625.605,4558.056,0,98.54646,,
	07/28/2022 18:31:30.051,791787,4516.62,36.00,6.00,-0.001060115,2.499997,-0.00265028,0.001348447,0.001329867,0.004413839,0.003861635,4579.551,4516.013,0,98.62207,,
	07/28/2022 21:01:09.994,800767,4455.21,37.00,6.00,-0.001060171,2.499978,-0.0026504,0.001332107,0.001311577,0.004360693,0.003807781,4524.057,4454.581,0,98.45878,,
	07/28/2022 23:29:00.123,809637,4405.41,38.00,6.00,-0.001059851,2.49994,-0.00264956,0.001314435,0.001297073,0.004304101,0.003765244,4464.035,4404.833,0,98.67911,,
	07/29/2022 01:55:10.096,818407,4354.2,39.00,6.00,-0.001060161,2.499953,-0.00265035,0.001300002,0.001281871,0.004257098,0.003721182,4415.159,4353.562,0,98.60538,,
	07/29/2022 04:19:50.463,827087,4313.01,40.00,6.00,-0.001059843,2.499934,-0.00264954,0.001285727,0.001269723,0.00421069,0.003685821,4366.683,4312.43,0,98.75526,,
	07/29/2022 06:43:05.523,835682,4269.74,41.00,6.00,-0.001060166,2.499997,-0.00265041,0.001273368,0.001256937,0.004170429,0.00364892,4324.688,4269.195,0,98.70966,,
	07/29/2022 09:04:49.695,844187,4222.25,42.00,6.00,-0.001060138,2.499976,-0.00265032,0.001260599,0.001243008,0.004128842,0.003608938,4281.26,4221.671,0,98.60453,,
	07/29/2022 11:25:05.124,852602,4179.55,43.00,6.00,-0.001060152,2.499913,-0.00265029,0.001247075,0.001230572,0.004084788,0.003572893,4235.293,4179.003,0,98.67664,,
	07/29/2022 13:43:55.593,860932,4139.44,44.00,6.00,-0.00106015,2.499974,-0.00265035,0.001233856,0.001218797,0.004041738,0.003539154,4190.41,4138.846,0,98.77953,,
	07/29/2022 16:02:02.745,869220,4117.41,45.00,6.00,-0.001060081,2.499953,-0.00265015,0.00122762,0.001212315,0.004020619,0.003523078,4169.131,4116.899,0,98.75327,,
	07/29/2022 18:19:12.847,877450,4086.07,46.00,6.00,-0.001060087,2.499995,-0.00265021,0.00122007,0.001203069,0.003994435,0.003497681,4143.376,4085.5,0,98.60653,,
	07/29/2022 20:34:37.297,885574,4034.93,47.00,6.00,-0.001060159,2.499997,-0.00265039,0.001203996,0.001188042,0.003942366,0.003452361,4088.906,4034.397,0,98.67494,,
	07/29/2022 22:48:16.680,893594,3982.18,48.00,6.00,-0.001060162,2.499959,-0.00265036,0.001188582,0.001172427,0.003893194,0.003405866,4036.623,3981.653,0,98.64085,,
	07/30/2022 01:00:22.667,901520,3939.43,49.00,6.00,-0.001060136,2.499991,-0.00265033,0.001173623,0.00115974,0.003845058,0.003368353,3985.936,3938.862,0,98.81705,,
	07/30/2022 03:11:05.436,909362,3896.13,50.00,6.00,-0.001059855,2.499999,-0.00264964,0.00116187,0.001146921,0.003807165,0.003330773,3946.029,3895.664,0,98.71341,,
	07/30/2022 05:20:32.057,917129,3860.05,51.00,6.00,-0.001059876,2.499984,-0.00264967,0.001150098,0.001136344,0.003768863,0.003299977,3905.997,3859.511,0,98.80408,,
	07/30/2022 07:28:45.895,924823,3824.7,52.00,6.00,-0.00106014,2.49999,-0.00265034,0.001139051,0.001126031,0.003732823,0.003269988,3868.568,3824.21,0,98.8569,,
	07/30/2022 09:36:00.192,932457,3796.52,53.00,6.00,-0.001060123,2.499995,-0.0026503,0.001129846,0.001117653,0.003702591,0.003245857,3837.219,3796.021,0,98.92078,,
	07/30/2022 11:42:09.111,940026,3760.94,54.00,6.00,-0.001060165,2.499995,-0.00265041,0.001121078,0.001107146,0.003674194,0.003215399,3807.435,3760.395,0,98.75726,,
	07/30/2022 13:47:07.072,947524,3728.8,55.00,6.00,-0.001060124,2.499999,-0.00265031,0.001109669,0.001097825,0.003637012,0.003188382,3768.609,3728.279,0,98.93259,,
	07/30/2022 15:51:32.823,954990,3711.81,56.00,6.00,-0.001060087,2.499972,-0.00265019,0.001105162,0.001092879,0.003621856,0.003176017,3753.338,3711.294,0,98.88853,,
	07/30/2022 17:55:20.186,962417,3693.66,57.00,6.00,-0.001060124,2.499978,-0.00265029,0.001099223,0.001087555,0.00360126,0.003161375,3733.166,3693.182,0,98.93854,,
	07/30/2022 19:57:51.877,969769,3651.69,58.00,6.00,-0.001059826,2.49997,-0.00264953,0.00108929,0.001075094,0.003568955,0.003124092,3699.433,3651.175,0,98.69673,,
	07/30/2022 21:58:50.383,977027,3609.63,59.00,6.00,-0.001060162,2.499991,-0.0026504,0.00107422,0.001062609,0.003520931,0.003086436,3648.335,3609.154,0,98.91918,,
	07/30/2022 23:58:46.018,984223,3576.97,60.00,6.00,-0.001060147,2.499991,-0.00265036,0.001065314,0.001053175,0.003492204,0.003059051,3618.087,3576.487,0,98.86051,,
	07/31/2022 01:57:38.458,991355,3546.3,61.00,6.00,-0.001060148,2.499986,-0.00265036,0.001055793,0.001044179,0.00346108,0.003032967,3585.602,3545.842,0,98.89999,,
	07/31/2022 03:55:35.163,998432,3519.13,62.00,6.00,-0.001060138,2.499984,-0.00265033,0.00104739,0.001036026,0.003433604,0.003009064,3557.031,3518.63,0,98.91503,,
	07/31/2022 05:52:36.461,1.00545e+06,3493.98,63.00,6.00,-0.001059873,2.499961,-0.00264964,0.001038454,0.001028646,0.003404578,0.002987574,3526.756,3493.499,0,99.05545,,
	07/31/2022 07:48:44.402,1.01242e+06,3462.9,64.00,6.00,-0.001060138,2.499911,-0.00265025,0.001031887,0.001019502,0.003383216,0.002961258,3504.532,3462.414,0,98.7998,,
	07/31/2022 09:43:52.077,1.01933e+06,3435.41,65.00,6.00,-0.001059867,2.499982,-0.00264965,0.001022225,0.001011344,0.003351481,0.002937457,3471.731,3434.941,0,98.93562,,
	07/31/2022 11:38:03.893,1.02618e+06,3406.64,66.00,6.00,-0.001060176,2.49998,-0.00265042,0.001014254,0.001002867,0.003325608,0.002912795,3444.653,3406.187,0,98.87733,,
	07/31/2022 13:31:18.214,1.03298e+06,3380.74,67.00,6.00,-0.001060143,2.499808,-0.00265015,0.001004944,0.0009952119,0.00329525,0.002890382,3413.022,3380.276,0,99.03157,,
	07/31/2022 15:23:47.844,1.03972e+06,3357.57,68.00,6.00,-0.00105985,2.499957,-0.00264958,0.0009986303,0.0009885711,0.003274562,0.002871216,3391.56,3357.11,0,98.9927,,
	07/31/2022 17:15:30.567,1.04643e+06,3335.11,69.00,6.00,-0.001060123,2.499961,-0.00265027,0.0009914277,0.000981982,0.003251071,0.002852153,3367.074,3334.649,0,99.04726,,
	07/31/2022 19:06:37.319,1.05309e+06,3317.24,70.00,6.00,-0.001060064,2.499993,-0.00265015,0.0009861382,0.0009767314,0.003233491,0.002837432,3349.039,3316.814,0,99.0461,,
	07/31/2022 20:57:07.429,1.05972e+06,3297.81,71.00,6.00,-0.00106015,2.499934,-0.00265031,0.0009810547,0.0009709932,0.003216476,0.002821283,3331.799,3297.361,0,98.97442,,
	07/31/2022 22:46:46.025,1.0663e+06,3270.6,72.00,6.00,-0.001059832,2.499913,-0.00264949,0.0009738841,0.0009629882,0.003192858,0.002797779,3307.476,3270.152,0,98.88119,,
	08/01/2022 00:35:22.736,1.07282e+06,3241.98,73.00,6.00,-0.001060104,2.499995,-0.00265025,0.0009640848,0.0009545624,0.003161373,0.002772286,3274.227,3241.546,0,99.01229,,
	08/01/2022 02:23:08.852,1.07929e+06,3217.96,74.00,6.00,-0.001059834,2.499999,-0.00264958,0.000956277,0.0009474572,0.003136143,0.00275171,3247.682,3217.56,0,99.0777,,
	08/01/2022 04:10:12.896,1.08571e+06,3196.92,75.00,6.00,-0.001059848,2.499953,-0.00264957,0.0009500521,0.0009411897,0.003115802,0.002733469,3226.576,3196.467,0,99.06716,,
	08/01/2022 05:56:37.932,1.09209e+06,3178.67,76.00,6.00,-0.001059836,2.499953,-0.00264954,0.0009439465,0.0009357433,0.003095978,0.002717547,3205.861,3178.258,0,99.13097,,
	08/01/2022 07:42:21.637,1.09844e+06,3156.45,77.00,6.00,-0.001059846,2.499982,-0.0026496,0.000938306,0.0009292923,0.003077505,0.002698622,3186.763,3156.054,0,99.03938,,
	08/01/2022 09:27:24.914,1.10474e+06,3137.53,78.00,6.00,-0.001060184,2.499978,-0.00265044,0.0009319966,0.0009236364,0.003056608,0.002682186,3165.284,3137.127,0,99.10298,,
	08/01/2022 11:11:41.356,1.111e+06,3111.86,79.00,6.00,-0.001060171,2.499965,-0.00265039,0.0009257622,0.000916175,0.003036514,0.002660328,3144.114,3111.451,0,98.9644,,
	08/01/2022 12:55:24.888,1.11722e+06,3097.54,80.00,6.00,-0.001059841,2.499965,-0.00264957,0.0009202896,0.0009119925,0.003018474,0.00264885,3125.514,3097.112,0,99.09842,,
	08/01/2022 14:38:34.638,1.12341e+06,3080.13,81.00,6.00,-0.001060124,2.499871,-0.00265017,0.0009154748,0.0009069066,0.003002418,0.002634725,3109.153,3079.763,0,99.06407,,
	08/01/2022 16:21:31.340,1.12959e+06,3074.37,82.00,6.00,-0.001060083,2.499955,-0.00265016,0.0009133673,0.0009052078,0.002994679,0.002630922,3101.896,3073.966,0,99.10666,,
	08/01/2022 18:03:59.701,1.13574e+06,3060.72,83.00,6.00,-0.001060118,2.499988,-0.00265028,0.0009090118,0.0009011802,0.002980123,0.002619232,3087.104,3060.289,0,99.13846,,
	08/01/2022 19:45:49.672,1.14185e+06,3040.05,84.00,6.00,-0.001060104,2.49999,-0.00265025,0.0009037814,0.0008950846,0.002962985,0.002601709,3069.412,3039.629,0,99.03773,,
	08/01/2022 21:27:15.659,1.14793e+06,3029.92,85.00,6.00,-0.001060081,2.499972,-0.00265017,0.0008997219,0.0008921121,0.002949404,0.002593746,3055.588,3029.523,0,99.15421,,
	08/01/2022 23:08:16.774,1.15399e+06,3016.27,86.00,6.00,-0.001060099,2.499991,-0.00265024,0.000896407,0.000888099,0.002938291,0.002582671,3044.374,3015.896,0,99.07319,,
	08/02/2022 00:48:48.770,1.16003e+06,3003.36,87.00,6.00,-0.001060088,2.499982,-0.0026502,0.0008916872,0.0008842633,0.002922552,0.002571677,3028.196,3002.985,0,99.16743,,
	08/02/2022 02:28:47.265,1.16602e+06,2984.51,88.00,6.00,-0.001060051,2.499963,-0.00265009,0.000887341,0.000878697,0.002908196,0.002555435,3013.492,2984.102,0,99.02585,,
	08/02/2022 04:08:10.714,1.17199e+06,2968.38,89.00,6.00,-0.001060037,2.499978,-0.00265007,0.0008817826,0.000873949,0.002890019,0.002541695,2994.619,2968.012,0,99.11162,,
	08/02/2022 05:47:00.051,1.17792e+06,2950.43,90.00,6.00,-0.001060046,2.499965,-0.00265008,0.0008770396,0.0008686589,0.002874308,0.002526495,2978.469,2950.019,0,99.04443,,
	08/02/2022 07:25:14.444,1.18381e+06,2933.93,91.00,6.00,-0.00106003,2.499946,-0.00265002,0.0008716122,0.0008638031,0.002856551,0.002512301,2960.028,2933.503,0,99.10406,,
	08/02/2022 09:02:41.593,1.18966e+06,2908.87,92.00,6.00,-0.001060157,2.499999,-0.00265039,0.0008650709,0.0008564655,0.002835132,0.002489809,2937.821,2908.469,0,99.00524,,
	08/02/2022 10:38:46.766,1.19542e+06,2867.86,93.00,6.00,-0.001060127,2.499993,-0.00265031,0.0008529728,0.0008444196,0.002797097,0.002452415,2896.86,2867.498,0,98.99725,,
	08/02/2022 12:13:48.535,1.20113e+06,2837.59,94.00,6.00,-0.001060103,2.499978,-0.00265023,0.0008432138,0.0008354685,0.002766253,0.002425552,2863.743,2837.178,0,99.08147,,
	08/02/2022 13:48:15.214,1.20679e+06,2824.41,95.00,6.00,-0.001060173,2.499995,-0.00265043,0.0008367748,0.0008315359,0.002745429,0.002413717,2841.83,2824.03,0,99.37392,,
	08/02/2022 15:22:13.787,1.21243e+06,2804.7,96.00,6.00,-0.001060159,2.499997,-0.00265039,0.0008342772,0.0008257667,0.002737038,0.002397223,2833.423,2804.31,0,98.97989,,
	08/02/2022 16:55:29.291,1.21803e+06,2784.95,97.00,6.00,-0.001060151,2.499925,-0.0026503,0.0008274443,0.000820003,0.002714869,0.002380343,2810.149,2784.558,0,99.10069,,
	08/02/2022 18:28:14.785,1.22359e+06,2772.44,98.00,6.00,-0.001060134,2.499993,-0.00265033,0.0008222751,0.0008163117,0.002697796,0.002369608,2792.62,2772.061,0,99.27477,,
	08/02/2022 20:00:40.117,1.22914e+06,2761.05,99.00,6.00,-0.001060084,2.499993,-0.0026502,0.0008197008,0.000812925,0.002689551,0.002360006,2783.845,2760.683,0,99.17338,,
	08/02/2022 21:32:32.547,1.23465e+06,2745.47,100.00,6.00,-0.001060156,2.499957,-0.00265034,0.0008146261,0.0008083731,0.002672801,0.002346778,2766.54,2745.114,0,99.23241,,
	08/02/2022 23:04:04.453,1.24014e+06,2735.86,101.00,6.00,-0.001059855,2.499885,-0.00264952,0.0008113838,0.0008055386,0.002661873,0.002338706,2755.607,2735.467,0,99.2796,,
	08/03/2022 00:35:05.137,1.2456e+06,2717.9,102.00,6.00,-0.001060126,2.499988,-0.0026503,0.000807464,0.000800233,0.002649099,0.002322996,2742.325,2717.51,0,99.10448,,
	08/03/2022 02:05:26.927,1.25102e+06,2700.79,103.00,6.00,-0.001059826,2.499969,-0.00264953,0.0008010606,0.0007950698,0.002628501,0.002307419,2720.58,2700.429,0,99.25214,,
	08/03/2022 03:35:27.163,1.25642e+06,2690.13,104.00,6.00,-0.001060157,2.499974,-0.00265036,0.0007978426,0.0007918966,0.002618084,0.002298271,2709.698,2689.781,0,99.25474,,
	08/03/2022 05:04:55.132,1.26179e+06,2674.05,105.00,6.00,-0.001059846,2.499976,-0.00264959,0.0007930849,0.0007872144,0.002602396,0.002284394,2693.525,2673.703,0,99.2598,,
	08/03/2022 06:33:59.208,1.26714e+06,2661.63,106.00,6.00,-0.001059873,2.499906,-0.00264958,0.000789697,0.0007836102,0.0025914,0.002273822,2682.036,2661.267,0,99.22923,,
	08/03/2022 08:02:41.408,1.27246e+06,2650.42,107.00,6.00,-0.001060122,2.499997,-0.0026503,0.0007865557,0.0007802346,0.00258116,0.002264403,2671.362,2650.026,0,99.19635,,
	08/03/2022 09:30:54.219,1.27775e+06,2635.76,108.00,6.00,-0.001060152,2.49999,-0.00265037,0.0007822299,0.0007759688,0.00256692,0.002251632,2656.648,2635.437,0,99.19958,,
	08/03/2022 10:58:32.036,1.28301e+06,2618.23,109.00,6.00,-0.00106012,2.499953,-0.00265025,0.0007771113,0.0007709057,0.002550302,0.002236868,2639.201,2617.874,0,99.20145,,
	08/03/2022 12:25:57.775,1.28825e+06,2613.74,110.00,6.00,-0.001060084,2.499963,-0.00265017,0.0007748678,0.0007695589,0.002542776,0.002233732,2631.588,2613.371,0,99.31487,,
	08/03/2022 13:53:13.494,1.29349e+06,2608.52,111.00,6.00,-0.001060123,2.49998,-0.00265029,0.0007734557,0.0007680357,0.002537621,0.002229724,2626.767,2608.147,0,99.29924,,
	08/03/2022 15:20:08.491,1.29871e+06,2597.12,112.00,6.00,-0.001060136,2.499953,-0.00265029,0.0007707184,0.0007646563,0.002528569,0.00221999,2617.484,2596.766,0,99.21344,,
	08/03/2022 16:46:25.581,1.30388e+06,2576.26,113.00,6.00,-0.00105985,2.499976,-0.0026496,0.0007657041,0.0007585255,0.002512266,0.002201444,2600.458,2575.938,0,99.06248,,
	08/03/2022 18:12:07.790,1.30902e+06,2562.2,114.00,6.00,-0.001060124,2.499993,-0.0026503,0.0007595723,0.00075438,0.002492836,0.002189036,2579.642,2561.751,0,99.31641,,
	08/03/2022 19:37:19.743,1.31414e+06,2545.77,115.00,6.00,-0.001060164,2.499993,-0.0026504,0.0007554101,0.0007495134,0.002479086,0.00217461,2565.497,2545.216,0,99.21941,,
	08/03/2022 21:02:02.322,1.31922e+06,2531.19,116.00,6.00,-0.001060143,2.499942,-0.0026503,0.0007511104,0.0007452282,0.002465219,0.002161952,2550.887,2530.675,0,99.21687,,
	08/03/2022 22:26:27.473,1.32428e+06,2524.43,117.00,6.00,-0.001060062,2.499988,-0.00265014,0.0007479819,0.0007432497,0.002454877,0.002156659,2540.214,2524.008,0,99.36734,,
	08/03/2022 23:50:46.602,1.32934e+06,2518.74,118.00,6.00,-0.001060117,2.499978,-0.00265027,0.0007479213,0.0007415774,0.002454214,0.002152835,2539.941,2518.37,0,99.15179,,
	08/04/2022 01:14:58.829,1.3344e+06,2519.3,119.00,6.00,-0.001060069,2.499967,-0.00265014,0.0007457057,0.0007416944,0.002446504,0.002153471,2532.44,2518.814,0,99.46208,,
	08/04/2022 02:38:51.951,1.33943e+06,2505.52,120.00,6.00,-0.001060151,2.499932,-0.00265031,0.000744093,0.0007376786,0.002440937,0.002141538,2527.027,2505.043,0,99.13795,,
	08/04/2022 04:02:00.441,1.34442e+06,2484.36,121.00,6.00,-0.001060112,2.499986,-0.00265027,0.0007371577,0.0007314616,0.002418767,0.002122461,2503.502,2483.952,0,99.2273,,
	08/04/2022 05:24:32.614,1.34937e+06,2465.45,122.00,6.00,-0.00106015,2.499907,-0.00265028,0.000732097,0.0007258702,0.002402557,0.002105825,2486.271,2465.084,0,99.14945,,
	08/04/2022 06:46:34.454,1.35429e+06,2452.25,123.00,6.00,-0.001060152,2.499976,-0.00265035,0.0007270178,0.0007219826,0.002386207,0.002094163,2469.088,2451.732,0,99.30741,,
	08/04/2022 08:08:10.204,1.35919e+06,2437.78,124.00,6.00,-0.001060165,2.499991,-0.0026504,0.0007235537,0.0007176962,0.002375013,0.00208162,2457.316,2437.193,0,99.19045,,
	08/04/2022 09:29:22.206,1.36406e+06,2428.6,125.00,6.00,-0.001060083,2.499894,-0.0026501,0.0007192719,0.0007150252,0.00236109,0.002073691,2442.764,2428.164,0,99.40958,,
	08/04/2022 10:50:21.709,1.36892e+06,2421.48,126.00,6.00,-0.001060053,2.499972,-0.0026501,0.0007177664,0.000712921,0.002355959,0.002068045,2437.58,2420.984,0,99.32493,,
	08/04/2022 12:11:13.565,1.37377e+06,2416.96,127.00,6.00,-0.001060165,2.499991,-0.0026504,0.0007167878,0.0007115888,0.002352364,0.002064667,2434.277,2416.484,0,99.27467,,
	08/04/2022 13:31:48.651,1.37861e+06,2408.28,128.00,6.00,-0.001060124,2.499892,-0.0026502,0.0007144336,0.0007090757,0.002344438,0.002057562,2426.352,2407.893,0,99.25005,,
	08/04/2022 14:51:58.382,1.38342e+06,2395.74,129.00,6.00,-0.001060136,2.499993,-0.00265033,0.0007106921,0.0007054039,0.002332206,0.002046536,2413.6,2395.421,0,99.25591,,
	08/04/2022 16:11:42.619,1.3882e+06,2383.37,130.00,6.00,-0.001060111,2.499959,-0.00265023,0.0007067974,0.0007017241,0.002319558,0.00203576,2400.388,2382.934,0,99.28222,,
	08/04/2022 17:31:18.201,1.39298e+06,2380.48,131.00,6.00,-0.001060098,2.499934,-0.00265018,0.0007051118,0.0007008894,0.002313802,0.00203369,2394.646,2380.102,0,99.40117,,
	08/04/2022 18:50:35.328,1.39773e+06,2370.1,132.00,6.00,-0.001060127,2.499999,-0.00265032,0.0007027285,0.0006978207,0.002306029,0.002024656,2386.544,2369.69,0,99.30161,,
	08/04/2022 20:09:27.726,1.40246e+06,2356.39,133.00,6.00,-0.001060117,2.499944,-0.00265023,0.0006994996,0.0006937952,0.002295522,0.002012809,2375.588,2356.034,0,99.18451,,
	08/04/2022 21:27:54.989,1.40717e+06,2344.88,134.00,6.00,-0.001060094,2.499949,-0.00265018,0.0006954765,0.0006904125,0.002282367,0.00200282,2361.963,2344.517,0,99.27187,,
	08/04/2022 22:45:55.452,1.41185e+06,2331.1,135.00,6.00,-0.001060154,2.499948,-0.00265033,0.0006916473,0.0006863343,0.002270051,0.001990452,2348.913,2330.701,0,99.23183,,
	08/05/2022 00:03:26.992,1.4165e+06,2317.19,136.00,6.00,-0.00106015,2.499997,-0.00265037,0.0006872265,0.0006822293,0.002255747,0.001978233,2333.891,2316.772,0,99.27284,,
	08/05/2022 01:20:33.992,1.42113e+06,2305.83,137.00,6.00,-0.001060148,2.499869,-0.00265023,0.0006833301,0.000678896,0.002243133,0.001968204,2320.696,2305.425,0,99.3511,,
	08/05/2022 02:37:17.266,1.42573e+06,2292.71,138.00,6.00,-0.001060112,2.499972,-0.00265025,0.0006801969,0.0006750339,0.002233023,0.001956861,2310.059,2292.327,0,99.24097,,
	08/05/2022 03:53:43.665,1.43032e+06,2287.6,139.00,6.00,-0.001059873,2.49997,-0.00264965,0.000676755,0.0006734244,0.002221753,0.001951987,2298.418,2287.311,0,99.50786,,
	08/05/2022 05:09:53.728,1.43489e+06,2276.28,140.00,6.00,-0.001059857,2.49998,-0.00264962,0.0006752731,0.0006700799,0.002216926,0.001942254,2293.427,2276.003,0,99.23094,,
	08/05/2022 06:25:42.350,1.43944e+06,2266.39,141.00,6.00,-0.001060145,2.499974,-0.00265033,0.0006718714,0.0006672309,0.002205758,0.001934038,2281.866,2266.07,0,99.30932,,
	08/05/2022 07:41:08.387,1.44397e+06,2254.29,142.00,6.00,-0.001059834,2.499993,-0.00264958,0.0006687914,0.0006636114,0.002195676,0.001923522,2271.389,2254.01,0,99.22546,,
	08/05/2022 08:56:14.288,1.44847e+06,2245.52,143.00,6.00,-0.001059894,2.499974,-0.00264971,0.0006654205,0.0006610234,0.002184673,0.001915947,2260.033,2245.263,0,99.33919,,
	08/05/2022 10:11:04.217,1.45296e+06,2238.05,144.00,6.00,-0.001059873,2.499982,-0.00264966,0.0006629465,0.0006588177,0.002176697,0.001909565,2251.551,2237.74,0,99.37721,,
	08/05/2022 11:25:39.564,1.45744e+06,2231.23,145.00,6.00,-0.001060173,2.499959,-0.00265039,0.0006606479,0.0006569712,0.002169022,0.001904184,2243.748,2230.96,0,99.44347,,
	08/05/2022 12:40:15.603,1.46191e+06,2231.68,146.00,6.00,-0.001060085,2.499997,-0.00265021,0.0006607564,0.000657082,0.002169127,0.001905299,2244.047,2231.386,0,99.44391,,
	08/05/2022 13:54:51.971,1.46639e+06,2231.72,147.00,6.00,-0.001060097,2.499993,-0.00265024,0.0006608304,0.0006571042,0.002168915,0.001905868,2244.298,2231.411,0,99.43614,,
	08/05/2022 15:09:20.400,1.47086e+06,2225.88,148.00,6.00,-0.00106012,2.49997,-0.00265027,0.000660216,0.000655385,0.002166696,0.001901215,2242.235,2225.614,0,99.26826,,
	08/05/2022 16:23:35.742,1.47531e+06,2219.91,149.00,6.00,-0.001060148,2.499984,-0.00265035,0.0006581101,0.0006536373,0.002159646,0.001896273,2235.087,2219.631,0,99.32036,,
	08/05/2022 17:37:40.601,1.47976e+06,2214.86,150.00,6.00,-0.001060103,2.499999,-0.00265026,0.0006565243,0.0006521319,0.002154255,0.001892091,2229.666,2214.549,0,99.33096,,
	08/05/2022 18:51:30.508,1.48419e+06,2207.11,151.00,6.00,-0.001060118,2.499995,-0.00265029,0.000654395,0.000649858,0.00214714,0.001885576,2222.442,2206.836,0,99.30669,,
	08/05/2022 20:05:02.445,1.4886e+06,2198.4,152.00,6.00,-0.00106009,2.499991,-0.00265022,0.0006516666,0.0006472905,0.002138239,0.001877871,2213.198,2198.107,0,99.32848,,
	08/05/2022 21:18:14.872,1.49299e+06,2188.41,153.00,6.00,-0.001060109,2.499997,-0.00265027,0.0006488643,0.0006443492,0.002129154,0.001869131,2203.673,2188.161,0,99.30417,,
	08/05/2022 22:31:08.072,1.49736e+06,2180.06,154.00,6.00,-0.00106012,2.49999,-0.00265029,0.0006456714,0.0006418966,0.002118715,0.001861836,2192.825,2179.775,0,99.41537,,
	08/05/2022 23:43:41.279,1.50172e+06,2168.92,155.00,6.00,-0.001060134,2.499986,-0.00265032,0.0006430536,0.0006385891,0.002110273,0.001851905,2183.926,2168.631,0,99.30574,,
	08/06/2022 00:55:49.143,1.50605e+06,2155.43,156.00,6.00,-0.00106014,2.499953,-0.0026503,0.0006395566,0.0006346452,0.002098956,0.001840189,2172.106,2155.149,0,99.23206,,
	08/06/2022 02:07:31.996,1.51035e+06,2143.96,157.00,6.00,-0.001060136,2.499993,-0.00265033,0.0006355729,0.000631273,0.002086078,0.001830096,2158.531,2143.698,0,99.32346,,
	08/06/2022 03:18:54.187,1.51463e+06,2134.23,158.00,6.00,-0.001060161,2.499959,-0.00265036,0.0006323767,0.0006283742,0.002075779,0.001821421,2147.641,2133.966,0,99.36706,,
	08/06/2022 04:29:55.406,1.51889e+06,2123.45,159.00,6.00,-0.001060115,2.499984,-0.00265027,0.0006293617,0.0006251751,0.002066046,0.001811941,2137.427,2123.186,0,99.33478,,
	08/06/2022 05:40:36.538,1.52313e+06,2113.65,160.00,6.00,-0.001060154,2.499991,-0.00265038,0.000626345,0.0006223338,0.002056245,0.001803385,2127.162,2113.35,0,99.35959,,
	08/06/2022 06:51:00.813,1.52736e+06,2105.23,161.00,6.00,-0.001060122,2.499932,-0.00265023,0.0006238456,0.0006198623,0.002048163,0.001796144,2118.705,2104.964,0,99.3615,,
	08/06/2022 08:01:05.047,1.53156e+06,2094.56,162.00,6.00,-0.001060159,2.49999,-0.00265039,0.0006210913,0.000616696,0.002039165,0.00178679,2109.342,2094.283,0,99.29231,,
	08/06/2022 09:10:43.603,1.53574e+06,2081.35,163.00,6.00,-0.001060168,2.499948,-0.00265036,0.000617421,0.0006127776,0.002027372,0.001775078,2096.889,2081.092,0,99.24793,,
	08/06/2022 10:20:03.714,1.5399e+06,2074.07,164.00,6.00,-0.001060143,2.499974,-0.00265033,0.0006141412,0.0006106905,0.002016712,0.00176892,2085.719,2073.8,0,99.43812,,
	08/06/2022 11:29:12.746,1.54405e+06,2068.59,165.00,6.00,-0.00106015,2.499963,-0.00265034,0.0006124866,0.0006090818,0.002011279,0.001764313,2080.109,2068.338,0,99.44411,,
	08/06/2022 12:38:13.800,1.54819e+06,2064.18,166.00,6.00,-0.001060129,2.499978,-0.0026503,0.0006114429,0.0006077738,0.002007734,0.001760852,2076.561,2063.91,0,99.39993,,
	08/06/2022 13:47:09.673,1.55233e+06,2061.49,167.00,6.00,-0.001060117,2.499978,-0.00265027,0.0006106962,0.0006069879,0.002005042,0.001758936,2074.041,2061.232,0,99.39278,,
	08/06/2022 14:56:02.264,1.55646e+06,2060.33,168.00,6.00,-0.001060081,2.499995,-0.0026502,0.0006100833,0.0006066375,0.002002765,0.001758239,2071.931,2060.066,0,99.4352,,
	08/06/2022 16:04:53.867,1.56059e+06,2059.78,169.00,6.00,-0.001060088,2.499997,-0.00265022,0.0006099764,0.0006064542,0.002002204,0.001758139,2071.508,2059.51,0,99.42257,,
	08/06/2022 17:13:39.010,1.56472e+06,2055.76,170.00,6.00,-0.001060083,2.49999,-0.0026502,0.0006092465,0.0006052664,0.001999587,0.001754905,2069.08,2055.5,0,99.34672,,
	08/06/2022 18:22:10.145,1.56883e+06,2048.76,171.00,6.00,-0.001060074,2.499997,-0.00265018,0.0006071854,0.0006032083,0.001992765,0.001748947,2062.052,2048.496,0,99.34499,,
	08/06/2022 19:30:29.328,1.57293e+06,2042.99,172.00,6.00,-0.001060059,2.49993,-0.00265007,0.0006053671,0.0006015185,0.001986787,0.001744074,2055.886,2042.707,0,99.36426,,
	08/06/2022 20:38:32.336,1.57701e+06,2035.2,173.00,6.00,-0.001060108,2.499972,-0.00265024,0.000602891,0.0005992499,0.001978655,0.001737303,2047.489,2034.948,0,99.39606,,
	08/06/2022 21:46:14.573,1.58107e+06,2023.7,174.00,6.00,-0.001060101,2.499999,-0.00265025,0.0006001577,0.0005958539,0.001969814,0.001727062,2038.24,2023.436,0,99.28288,,
	08/06/2022 22:53:34.804,1.58511e+06,2014.06,175.00,6.00,-0.001060124,2.499993,-0.0026503,0.0005964961,0.0005930154,0.001957961,0.001718568,2025.832,2013.813,0,99.41647,,
	08/07/2022 00:00:36.412,1.58913e+06,2003.62,176.00,6.00,-0.00106018,2.49998,-0.00265043,0.0005940813,0.0005898912,0.001950258,0.001709181,2017.664,2003.362,0,99.29469,,
	08/07/2022 01:07:16.317,1.59313e+06,1993.27,177.00,6.00,-0.001060132,2.499969,-0.0026503,0.0005907377,0.0005868588,0.001939471,0.001700117,2006.307,1993.023,0,99.34339,,
	08/07/2022 02:13:36.538,1.59711e+06,1983.94,178.00,6.00,-0.001060127,2.499879,-0.00265019,0.0005877044,0.000584144,0.001929669,0.001692048,1995.984,1983.674,0,99.3942,,
	08/07/2022 03:19:40.187,1.60108e+06,1975.83,179.00,6.00,-0.001060106,2.499999,-0.00265026,0.0005852028,0.0005817584,0.001921553,0.001684874,1987.512,1975.595,0,99.41142,,
	08/07/2022 04:25:26.186,1.60502e+06,1965.31,180.00,6.00,-0.001060151,2.499982,-0.00265036,0.0005831111,0.0005786598,0.001914771,0.001675905,1980.403,1965.066,0,99.23663,,
	08/07/2022 05:30:54.380,1.60895e+06,1958.67,181.00,6.00,-0.001059825,2.499829,-0.00264938,0.0005798199,0.0005766602,0.001904032,0.00166992,1969.2,1958.446,0,99.45506,,
	08/07/2022 06:36:10.004,1.61287e+06,1952.08,182.00,6.00,-0.001060173,2.499993,-0.00265043,0.0005780773,0.0005747526,0.001898373,0.001664382,1963.266,1951.826,0,99.42487,,
	08/07/2022 07:41:10.562,1.61677e+06,1944.16,183.00,6.00,-0.001059862,2.499991,-0.00264965,0.0005759522,0.0005723261,0.001891396,0.001657187,1956.082,1943.925,0,99.37041,,
	08/07/2022 08:45:55.211,1.62065e+06,1936.97,184.00,6.00,-0.001059841,2.499953,-0.00264955,0.0005733732,0.0005702295,0.00188308,0.001650821,1947.38,1936.731,0,99.45172,,
	08/07/2022 09:50:24.278,1.62452e+06,1927.64,185.00,6.00,-0.001060166,2.499976,-0.00265039,0.0005715399,0.0005675752,0.001877106,0.001643025,1941.112,1927.399,0,99.3063,,
	08/07/2022 10:54:38.874,1.62838e+06,1922.07,186.00,6.00,-0.001059862,2.499988,-0.00264964,0.0005689431,0.000565887,0.001868681,0.001638201,1932.218,1921.814,0,99.46284,,
	08/07/2022 11:58:41.935,1.63222e+06,1915.15,187.00,6.00,-0.001060131,2.499993,-0.00265032,0.0005675774,0.0005639044,0.001864155,0.001632506,1927.594,1914.925,0,99.35285,,
	08/07/2022 13:02:40.653,1.63606e+06,1915.39,188.00,6.00,-0.001060098,2.499944,-0.00265019,0.0005662507,0.0005639581,0.001859647,0.001632792,1923.047,1915.142,0,99.59513,,
	08/07/2022 14:06:40.346,1.6399e+06,1914.05,189.00,6.00,-0.001060095,2.499984,-0.00265022,0.0005669198,0.0005635631,0.001861579,0.001632109,1925.341,1913.826,0,99.4079,,
	08/07/2022 15:10:34.719,1.64373e+06,1910.87,190.00,6.00,-0.001060064,2.499999,-0.00265016,0.0005662933,0.0005626123,0.001859291,0.0016297,1923.201,1910.62,0,99.34998,,
	08/07/2022 16:14:21.583,1.64756e+06,1907.58,191.00,6.00,-0.001060103,2.499986,-0.00265024,0.0005650567,0.0005616519,0.001855104,0.001627035,1918.976,1907.325,0,99.39745,,
	08/07/2022 17:17:58.970,1.65138e+06,1903.3,192.00,6.00,-0.001060085,2.499928,-0.00265014,0.000563532,0.0005603992,0.00184998,0.001623452,1913.788,1903.067,0,99.44408,,
	08/07/2022 18:21:23.846,1.65518e+06,1895.88,193.00,6.00,-0.001060071,2.499991,-0.00265017,0.0005620152,0.0005582185,0.001845036,0.001617011,1908.69,1895.685,0,99.32444,,
	08/07/2022 19:24:33.038,1.65897e+06,1889.13,194.00,6.00,-0.001060083,2.499978,-0.00265018,0.0005594049,0.0005562134,0.001836553,0.001610969,1899.781,1888.903,0,99.42948,,
	08/07/2022 20:27:29.929,1.66275e+06,1883.23,195.00,6.00,-0.001060083,2.499955,-0.00265016,0.0005575159,0.0005544846,0.001830388,0.00160588,1893.358,1883.018,0,99.45629,,
	08/07/2022 21:30:14.002,1.66651e+06,1875.68,196.00,6.00,-0.001060064,2.499999,-0.00265016,0.0005559661,0.0005522646,0.001825267,0.001599446,1888.11,1875.445,0,99.33423,,
	08/07/2022 22:32:42.293,1.67026e+06,1868.19,197.00,6.00,-0.001060083,2.499986,-0.00265019,0.0005535216,0.0005500599,0.001817366,0.001592848,1879.792,1867.975,0,99.37461,,
	08/07/2022 23:34:53.245,1.67399e+06,1859.06,198.00,6.00,-0.001060165,2.499982,-0.00265039,0.0005511019,0.0005473645,0.001809492,0.001584815,1871.599,1858.813,0,99.32182,,
	08/08/2022 00:36:48.000,1.6777e+06,1851.86,199.00,6.00,-0.001060071,2.499997,-0.00265017,0.000548447,0.0005452441,0.001800925,0.001578458,1862.603,1851.632,0,99.416,,
	08/08/2022 01:38:27.114,1.6814e+06,1843.76,200.00,6.00,-0.001060094,2.499871,-0.0026501,0.0005462392,0.0005428672,0.00179377,0.001571398,1855.059,1843.529,0,99.38269,,