File: Cell-test-data/SiMP-LFP-PFOF1_ERROR/JB7_SiMP-LFP-PFOF1_Channel_80_Wb_1.CSV
Data Point,Date Time,Test Time (s),Step Time (s),Cycle Index,Step Index,Current (A),Voltage (V),Power (W),Charge Capacity (Ah),Discharge Capacity (Ah),Charge Energy (Wh),Discharge Energy (Wh),ACR (Ohm),dV/dt (V/s),Internal Resistance (Ohm),dQ/dV (Ah/V),dV/dQ (V/Ah)
1,	08/04/2022 13:58:24.492,300.0004,300.0003,1,1,0,0.001702309,0,0,0,0,0,,-4.25323e-07,,0,0
25,	08/04/2022 15:58:24.492,7500,7500,1,1,0,0.001729965,0,0,0,0,0,,1.49705e-07,,0,0
49,	08/04/2022 17:58:24.492,14700,14700,1,1,0,0.001736641,0,0,0,0,0,,-2.13813e-06,,0,0
73,	08/04/2022 19:58:24.494,21900.002,21900,1,1,0,0.001708984,0,0,0,0,0,,1.25663e-06,,0,0
97,	08/04/2022 21:58:24.495,29100,29100,1,1,0,0.001688004,0,0,0,0,0,,5.42967e-06,,0,0
121,	08/04/2022 23:58:24.492,36300,36300,1,1,0,0.001688004,0,0,0,0,0,,5.10706e-06,,0,0
145,	08/05/2022 01:53:24.493,43200,43200,1,1,0,0.00166893,0,0,0,0,0,,2.47109e-06,0,0,0
169,	08/05/2022 02:17:24.637,44640.1,1440.06,1,2,0.0001589835,0.001713753,2.72458e-07,0.00006359012,0,0.0000001079414,0,,3.05969e-06,,,
193,	08/05/2022 02:41:24.673,46080.2,2880.1,1,2,0.0001589864,0.00167942,2.67005e-07,0.0001271787,0,0.0000002159848,0,,-3.08054e-06,,,
217,	08/05/2022 03:05:24.726,47520.2,4320.15,1,2,0.0001589911,0.001660347,2.6398e-07,0.0001907688,0,0.0000003241212,0,,-4.33152e-06,,,
241,	08/05/2022 03:29:24.775,48960.3,5760.2,1,2,0.0001589872,0.001689911,2.68674e-07,0.0002543579,0,0.000000432281,0,,-7.27225e-06,,,
265,	08/05/2022 03:53:24.837,50400.3,7200.26,1,2,0.0001589867,0.001708984,2.71706e-07,0.0003179473,0,0.0000005404885,0,,-2.77206e-06,,,
289,	08/05/2022 04:17:24.897,51840.4,8640.32,1,2,0.0001589911,0.001766205,2.80811e-07,0.0003815367,0,0.0000006486149,0,,-1.20348e-06,,0,0
313,	08/05/2022 04:41:24.946,53280.5,10080.4,1,2,0.0001589892,0.001672745,2.65948e-07,0.0004451251,0,0.0000007567746,0,,-6.48797e-07,,0,0
337,	08/05/2022 05:05:25.002,54720.5,11520.4,1,2,0.0001589849,0.001732826,2.75493e-07,0.0005087138,0,0.0000008649442,0,,-1.69586e-06,,0,0
361,	08/05/2022 05:29:25.050,56160.6,12960.5,1,2,0.000158986,0.00171566,2.72766e-07,0.0005723021,0,0.0000009730803,0,,-9.61662e-06,,0,0
385,	08/05/2022 05:53:25.107,57600.6,14400.5,1,2,0.0001589844,0.001675606,2.66395e-07,0.000635891,0,0.000001081227,0,,1.12419e-05,,0,0
409,	08/05/2022 06:17:25.164,59040.672,15840.6,1,2,0.0001589872,0.001703262,2.70797e-07,0.0006994801,0,0.000001189367,0,,-1.9444e-06,,,
433,	08/05/2022 06:41:25.215,60480.7,17280.6,1,2,0.0001589876,0.001681328,2.6731e-07,0.0007630693,0,0.000001297465,0,,5.3106e-06,,,
457,	08/05/2022 07:05:25.272,61920.8,18720.7,1,2,0.0001589878,0.0017519,2.78531e-07,0.0008266582,0,0.000001405382,0,,-6.96694e-06,,,
481,	08/05/2022 07:29:25.325,63360.8,20160.7,1,2,0.0001589848,0.001693726,2.69277e-07,0.0008902465,0,0.000001513383,0,,-6.14437e-06,,,
505,	08/05/2022 07:53:25.371,64800.879,21600.8,1,2,0.0001589915,0.001700401,2.70349e-07,0.0009538356,0,0.00000162128,0,,1.71985e-06,,,
529,	08/05/2022 08:17:25.422,66240.9,23040.8,1,2,0.0001589855,0.001732826,2.75494e-07,0.001017425,0,0.000001729333,0,,-1.85752e-06,,0,0
553,	08/05/2022 08:41:25.473,67681,24480.9,1,2,0.0001589918,0.001770973,2.8157e-07,0.001081014,0,0.00000183742,0,,-7.07258e-06,,0,0
577,	08/05/2022 09:05:25.527,69121,25921,1,2,0.0001589864,0.001688004,2.6837e-07,0.001144604,0,0.00000194548,0,,7.63406e-07,,0,0
601,	08/05/2022 09:29:25.586,70561.1,27361,1,2,0.0001589897,0.001698494,2.70043e-07,0.001208194,0,0.000002053606,0,,-8.63315e-06,,0,0
625,	08/05/2022 09:53:25.632,72001.1,28801.1,1,2,0.0001589891,0.001667023,2.65038e-07,0.001271782,0,0.000002161732,0,,4.02313e-06,,0,0
649,	08/05/2022 10:17:25.675,73441.183,30241.1,1,2,0.0001589868,0.001653671,2.62912e-07,0.001335369,0,0.000002269902,0,,-6.09807e-06,,,
673,	08/05/2022 10:41:25.731,74881.2,31681.2,1,2,0.0001589899,0.001636505,2.60188e-07,0.001398958,0,0.000002378058,0,,-1.16792e-06,,,
697,	08/05/2022 11:05:25.780,76321.3,33121.2,1,2,0.0001589922,0.001639366,2.60646e-07,0.001462547,0,0.000002486283,0,,4.40789e-06,,,
721,	08/05/2022 11:29:25.831,77761.3,34561.3,1,2,0.0001589925,0.001707077,2.71412e-07,0.001526136,0,0.000002594516,0,,8.21516e-06,,,
745,	08/05/2022 11:53:25.885,79201.4,36001.308,1,2,0.0001589888,0.001728058,2.74742e-07,0.001589725,0,0.000002702803,0,,8.30342e-07,,,
769,	08/05/2022 12:17:25.941,80641.4,37441.364,1,2,0.000158996,0.001707077,2.71418e-07,0.001653314,0,0.000002811183,0,,6.44494e-06,,0,0
793,	08/05/2022 12:41:25.993,82081.501,38881.4,1,2,0.0001589895,0.001823425,2.89905e-07,0.001716903,0,0.000002919547,0,,-7.0822e-06,,0,0
817,	08/05/2022 13:05:26.040,83521.5,40321.5,1,2,0.0001589934,0.00171566,2.72779e-07,0.001780492,0,0.000003027946,0,,2.40804e-06,,0,0
841,	08/05/2022 13:29:26.097,84961.605,41761.5,1,2,0.000158989,0.001722336,2.73832e-07,0.001844081,0,0.000003136196,0,,-6.46986e-06,,0,0
865,	08/05/2022 13:53:26.137,86401.6,43201.6,1,2,0.0001589863,0.001713753,2.72463e-07,0.00190767,0,0.000003244426,0,,-8.62176e-07,,0,0
889,	08/05/2022 14:17:26.190,87841.7,44641.6,1,2,0.0001589908,0.001710892,2.72016e-07,0.001971259,0,0.000003352668,0,,-1.44336e-06,,,
913,	08/05/2022 14:41:26.241,89281.7,46081.7,1,2,0.0001589904,0.001740456,2.76716e-07,0.002034849,0,0.000003460851,0,,3.16118e-06,,,
937,	08/05/2022 15:05:26.291,90721.8,47521.7,1,2,0.0001589891,0.001683235,2.67616e-07,0.002098439,0,0.000003569043,0,,5.32587e-06,,,
961,	08/05/2022 15:29:26.342,92161.8,48961.765,1,2,0.0001589862,0.001703262,2.70795e-07,0.00216203,0,0.000003677182,0,,1.56648e-06,,,
985,	08/05/2022 15:53:26.398,93601.9,50401.8,1,2,0.0001589922,0.001747131,2.7778e-07,0.00222562,0,0.00000378547,0,,5.6174e-07,,,
1009,	08/05/2022 16:17:26.455,95042,51841.9,1,2,0.0001589925,0.001745224,2.77478e-07,0.002289212,0,0.000003893809,0,,3.30559e-06,,0,0
1033,	08/05/2022 16:41:26.506,96482.014,53281.9,1,2,0.0001589874,0.001688004,2.68371e-07,0.002352802,0,0.000004002206,0,,-1.1386e-06,,0,0
1057,	08/05/2022 17:05:26.560,97922.1,54721.983,1,2,0.0001589932,0.001732826,2.75508e-07,0.002416393,0,0.000004110646,0,,-1.00541e-05,,0,0
1081,	08/05/2022 17:29:26.612,99362.1,56162,1,2,0.0001589925,0.001749039,2.78084e-07,0.002479984,0,0.000004219032,0,,-3.5755e-06,,0,0
1105,	08/05/2022 17:53:26.656,100802.164,57602.1,1,2,0.0001589914,0.001667023,2.65042e-07,0.002543574,0,0.000004327464,0,,8.32483e-07,,0,0
1129,	08/05/2022 18:17:26.700,102242,59042.1,1,2,0.0001589897,0.001710892,2.72014e-07,0.002607164,0,0.000004435748,0,,6.04538e-06,,,
1153,	08/05/2022 18:41:26.758,103682,60482.2,1,2,0.0001589904,0.001685143,2.67922e-07,0.002670755,0,0.000004544133,0,,-3.04934e-07,,,
1177,	08/05/2022 19:05:26.808,105122,61922.2,1,2,0.000158995,0.001717567,2.73085e-07,0.002734345,0,0.000004652505,0,,-6.08982e-06,,,
1201,	08/05/2022 19:29:26.871,106562,63362.3,1,2,0.0001589871,0.001627922,2.58819e-07,0.002797936,0,0.000004760937,0,,2.40056e-06,,,
1225,	08/05/2022 19:53:26.930,108002,64802.4,1,2,0.0001589918,0.001731873,2.75354e-07,0.002861527,0,0.000004869296,0,,2.49264e-07,,,
1249,	08/05/2022 20:17:26.976,109442,66242.4,1,2,0.0001589883,0.001721382,2.7368e-07,0.002925114,0,0.000004977622,0,,-5.35727e-06,,0,0
1273,	08/05/2022 20:41:27.034,110883,67682.5,1,2,0.0001589867,0.001643181,2.61244e-07,0.002988704,0,0.00000508575,0,,-3.7575e-06,,0,0
1297,	08/05/2022 21:05:27.084,112323,69122.5,1,2,0.0001589892,0.001741409,2.76865e-07,0.003052293,0,0.000005193975,0,,7.94983e-06,,0,0
1321,	08/05/2022 21:29:27.151,113763,70562.6,1,2,0.0001589883,0.00170517,2.71102e-07,0.003115883,0,0.00000530228,0,,-8.17249e-06,,0,0
1345,	08/05/2022 21:53:27.203,115203,72002.6,1,2,0.0001589943,0.00171566,2.7278e-07,0.003179471,0,0.000005410539,0,,6.97608e-06,,0,0
1369,	08/05/2022 22:17:27.260,116642.768,73442.7,1,2,0.0001589927,0.001696587,2.69745e-07,0.003243062,0,0.00000551875,0,,-3.88874e-07,,,
1393,	08/05/2022 22:41:27.296,118083,74882.7,1,2,0.0001589952,0.001743317,2.77179e-07,0.003306652,0,0.000005626981,0,,-2.01685e-06,,,
1417,	08/05/2022 23:05:27.353,119523,76322.8,1,2,0.0001589925,0.00165844,2.6368e-07,0.003370242,0,0.000005735195,0,,4.34256e-06,,,
1441,	08/05/2022 23:29:27.414,120963,77762.8,1,2,0.0001589934,0.001743317,2.77176e-07,0.003433834,0,0.000005843418,0,,2.75583e-06,,,
1465,	08/05/2022 23:53:27.465,122403,79202.888,1,2,0.0001589964,0.001721382,2.73694e-07,0.003497426,0,0.000005951757,0,,-1.5451e-05,,,
1489,	08/06/2022 00:17:27.512,123843,80642.9,1,2,0.00015899,0.001710892,2.72015e-07,0.003561018,0,0.000006059956,0,,3.05315e-06,,0,0
1513,	08/06/2022 00:41:27.571,125283,82083,1,2,0.0001589908,0.001707077,2.7141e-07,0.00362461,0,0.000006168138,0,,2.63612e-06,,0,0
1537,	08/06/2022 01:05:27.622,126723,83523,1,2,0.0001589955,0.001681328,2.67324e-07,0.003688201,0,0.000006276272,0,,-2.12896e-07,,0,0
1561,	08/06/2022 01:29:27.668,128163,84963.1,1,2,0.0001589929,0.001694679,2.69442e-07,0.003751792,0,0.000006384226,0,,-8.24731e-07,,0,0
1585,	08/06/2022 01:53:27.723,129603,86403.146,1,2,0.0001589933,0.001719475,2.73385e-07,0.003815383,0,0.00000649225,0,,-5.65883e-06,,0,0
1609,	08/06/2022 02:17:27.778,131043,87843.2,1,2,0.0001589899,0.001766205,2.80809e-07,0.003878975,0,0.000006600337,0,,1.569e-06,,,
1633,	08/06/2022 02:41:27.840,132483,89283.263,1,2,0.000158995,0.001681328,2.67323e-07,0.003942567,0,0.00000670848,0,,-1.18741e-06,,,
1657,	08/06/2022 03:05:27.904,133923,90723.327,1,2,0.0001589971,0.001712799,2.7233e-07,0.00400616,0,0.000006816617,0,,7.21448e-06,,,
1681,	08/06/2022 03:29:27.959,135363,92163.4,1,2,0.0001589897,0.001700401,2.70346e-07,0.004069752,0,0.000006924735,0,,4.21245e-06,,,
1705,	08/06/2022 03:53:28.005,136804,93603.428,1,2,0.0001589878,0.001738548,2.76408e-07,0.004133343,0,0.000007032813,0,,1.15243e-05,,,
1729,	08/06/2022 04:17:28.055,138244,95043.5,1,2,0.0001589955,0.001688004,2.68385e-07,0.004196935,0,0.000007140895,0,,1.16778e-06,,0,0
1753,	08/06/2022 04:41:28.089,139684,96483.512,1,2,0.0001589929,0.0017519,2.7854e-07,0.004260525,0,0.000007249005,0,,-1.62169e-06,,0,0
1777,	08/06/2022 05:05:28.138,141124,97923.6,1,2,0.0001589936,0.001685143,2.67927e-07,0.004324117,0,0.0000073571,0,,-1.96887e-06,,0,0
1801,	08/06/2022 05:29:28.195,142564,99363.6,1,2,0.0001589943,0.001639366,2.6065e-07,0.004387709,0,0.000007465232,0,,1.25504e-07,,0,0
1825,	08/06/2022 05:53:28.262,144004,100803.685,1,2,0.0001589925,0.001726151,2.74445e-07,0.004451301,0,0.00000757336,0,,7.65509e-06,,0,0
1849,	08/06/2022 06:17:28.306,145444,102244,1,2,0.0001589939,0.001700401,2.70353e-07,0.004514893,0,0.000007681385,0,,6.24584e-07,,,
1873,	08/06/2022 06:41:28.353,146884,103684,1,2,0.0001589927,0.001743317,2.77175e-07,0.004578483,0,0.000007789457,0,,-4.37112e-06,,,
1897,	08/06/2022 07:05:28.405,148324,105124,1,2,0.0001589925,0.001745224,2.77478e-07,0.004642074,0,0.000007897534,0,,8.64377e-07,,,
1921,	08/06/2022 07:29:28.458,149764,106564,1,2,0.0001589953,0.001702309,2.70659e-07,0.004705665,0,0.000008005702,0,,-7.01743e-06,,,
1945,	08/06/2022 07:53:28.514,151204,108004,1,2,0.0001589962,0.00165844,2.63686e-07,0.004769257,0,0.000008113877,0,,-1.44907e-06,,,
1969,	08/06/2022 08:17:28.568,152644,109444,1,2,0.000158997,0.001639366,2.60654e-07,0.004832848,0,0.000008222001,0,,2.29421e-06,,,
1993,	08/06/2022 08:41:28.620,154084,110884,1,2,0.0001589938,0.001662254,2.64288e-07,0.00489644,0,0.000008330202,0,,-2.30903e-07,,0,0
2017,	08/06/2022 09:05:28.679,155524,112324,1,2,0.000158995,0.001731873,2.75359e-07,0.004960031,0,0.000008438216,0,,-7.33862e-06,,0,0
2041,	08/06/2022 09:29:28.744,156964,113764,1,2,0.0001589933,0.001686096,2.68078e-07,0.005023623,0,0.000008546109,0,,5.30644e-07,,0,0
2065,	08/06/2022 09:53:28.789,158404,115204,1,2,0.0001589939,0.00165844,2.63682e-07,0.005087214,0,0.000008654037,0,,2.74705e-06,,0,0
2089,	08/06/2022 10:17:28.830,159844,116644,1,2,0.0001589967,0.001710892,2.72026e-07,0.005150804,0,0.000008762029,0,,-4.20583e-06,,0,0
2113,	08/06/2022 10:41:28.889,161284.397,118084,1,2,0.0001589943,0.001745224,2.77481e-07,0.005214396,0,0.000008870106,0,,-7.66485e-06,,,
2137,	08/06/2022 11:05:28.942,162724,119524,1,2,0.0001589946,0.001721382,2.7369e-07,0.005277988,0,0.000008978223,0,,-3.1079e-06,,,
2161,	08/06/2022 11:29:28.991,164164,120964,1,2,0.0001589941,0.001693726,2.69292e-07,0.005341578,0,0.000009086355,0,,-6.09417e-06,,,
2185,	08/06/2022 11:53:29.038,165605,122404,1,2,0.0001589918,0.001693726,2.69289e-07,0.00540517,0,0.000009194549,0,,2.13018e-06,,,
2209,	08/06/2022 12:17:29.087,167045,123845,1,2,0.0001589961,0.001749039,2.7809e-07,0.005468762,0,0.000009302824,0,,4.21235e-06,,,
2233,	08/06/2022 12:41:29.136,168484.644,125285,1,2,0.000158995,0.001655579,2.63229e-07,0.005532355,0,0.000009410978,0,,4.50252e-06,,0,0
2257,	08/06/2022 13:05:29.177,169925,126725,1,2,0.0001589953,0.001740456,2.76724e-07,0.005595947,0,0.0000095191,0,,3.01568e-06,,0,0
2281,	08/06/2022 13:29:29.231,171365,128165,1,2,0.000158995,0.00167942,2.67019e-07,0.005659539,0,0.000009627275,0,,-3.3871e-06,,0,0
2305,	08/06/2022 13:53:29.274,172805,129605,1,2,0.0001589964,0.001734734,2.75816e-07,0.005723132,0,0.000009735561,0,,1.2896e-06,,0,0
2329,	08/06/2022 14:17:29.320,174245,131045,1,2,0.0001589941,0.001666069,2.64895e-07,0.005786723,0,0.000009843838,0,,2.00694e-07,,0,0
2353,	08/06/2022 14:41:29.365,175685,132485,1,2,0.0001589911,0.001702309,2.70652e-07,0.005850316,0,0.000009951986,0,,6.69655e-06,,,
2377,	08/06/2022 15:05:29.407,177125,133925,1,2,0.0001589978,0.001717567,2.73089e-07,0.005913907,0,0.00001006018,0,,-2.6665e-06,,,
2401,	08/06/2022 15:29:29.459,178565,135364.882,1,2,0.000158991,0.001703262,2.70803e-07,0.005977499,0,0.00001016854,0,,3.75552e-06,,,
2425,	08/06/2022 15:53:29.514,180005,136805,1,2,0.0001589952,0.00171566,2.72782e-07,0.006041091,0,0.00001027709,0,,1.37135e-06,,,
2449,	08/06/2022 16:17:29.570,181445,138245,1,2,0.0001589933,0.00170517,2.71111e-07,0.006104683,0,0.00001038569,0,,-6.24254e-07,,,
2473,	08/06/2022 16:41:29.618,182885,139685,1,2,0.0001589941,0.001639366,2.6065e-07,0.006168274,0,0.00001049421,0,,2.21625e-06,,0,0
2497,	08/06/2022 17:05:29.663,184325,141125,1,2,0.0001589955,0.001708984,2.71721e-07,0.006231865,0,0.00001060276,0,,7.61361e-06,,0,0
2521,	08/06/2022 17:29:29.722,185765,142565,1,2,0.0001589948,0.001691818,2.6899e-07,0.006295457,0,0.00001071129,0,,-2.97318e-06,,0,0
2545,	08/06/2022 17:53:29.766,187205,144005,1,2,0.0001589915,0.001681328,2.67317e-07,0.006359047,0,0.00001081969,0,,8.19136e-06,,0,0
2569,	08/06/2022 18:17:29.822,188645,145445,1,2,0.0001589919,0.001750946,2.78386e-07,0.006422637,0,0.00001092808,0,,-2.22121e-06,,0,0
2593,	08/06/2022 18:41:29.873,190085,146885,1,2,0.0001589902,0.001734734,2.75806e-07,0.006486228,0,0.0000110365,0,,1.86497e-06,,,
2617,	08/06/2022 19:05:29.923,191525.431,148325,1,2,0.0001589922,0.00165844,2.63679e-07,0.006549819,0,0.00001114491,0,,-1.17614e-05,,,
2641,	08/06/2022 19:29:29.971,192965,149765.394,1,2,0.0001589897,0.001712799,2.72317e-07,0.006613409,0,0.00001125335,0,,-9.17267e-07,,,
2665,	08/06/2022 19:53:30.033,194406,151205,1,2,0.0001589883,0.001702309,2.70647e-07,0.006677,0,0.00001136179,0,,9.0074e-06,,,
2689,	08/06/2022 20:17:30.086,195846,152645.509,1,2,0.0001589902,0.001713753,2.7247e-07,0.006740591,0,0.00001147017,0,,3.24404e-06,,,
2713,	08/06/2022 20:41:30.135,197285.643,154086,1,2,0.0001589939,0.001722336,2.73841e-07,0.006804182,0,0.00001157856,0,,-2.44427e-06,,0,0
2737,	08/06/2022 21:05:30.186,198726,155526,1,2,0.0001589895,0.001729965,2.75046e-07,0.006867772,0,0.00001168699,0,,-6.13197e-06,,0,0
2761,	08/06/2022 21:29:30.234,200165.742,156966,1,2,0.0001589902,0.001722336,2.73835e-07,0.006931363,0,0.0000117955,0,,1.48878e-05,,0,0
2785,	08/06/2022 21:53:30.283,201606,158406,1,2,0.0001589899,0.001731873,2.7535e-07,0.006994953,0,0.000011904,0,,-4.62359e-06,,0,0
2809,	08/06/2022 22:17:30.336,203046,159846,1,2,0.0001589932,0.001693726,2.69291e-07,0.007058544,0,0.00001201244,0,,-3.61835e-06,,0,0
2833,	08/06/2022 22:41:30.389,204485.897,161286,1,2,0.0001589911,0.001675606,2.66406e-07,0.007122135,0,0.00001212089,0,,-4.51154e-06,,,
2857,	08/06/2022 23:05:30.443,205926,162726,1,2,0.0001589928,0.001672745,2.65954e-07,0.007185725,0,0.00001222935,0,,1.52764e-07,,,
2881,	08/06/2022 23:29:30.487,207366,164166,1,2,0.0001589891,0.001710892,2.72013e-07,0.007249314,0,0.00001233787,0,,1.56426e-05,,,
2905,	08/06/2022 23:53:30.541,208806,165606,1,2,0.0001589844,0.001670837,2.65637e-07,0.007312903,0,0.00001244631,0,,2.25119e-06,,,
2929,	08/07/2022 00:17:30.590,210246,167046,1,2,0.0001589886,0.001636505,2.60186e-07,0.00737649,0,0.00001255477,0,,-9.31261e-06,,,
2953,	08/07/2022 00:41:30.632,211686,168486,1,2,0.0001589904,0.00166893,2.65344e-07,0.007440079,0,0.00001266328,0,,9.91896e-06,,0,0
2977,	08/07/2022 01:05:30.688,213126,169926,1,2,0.0001589891,0.001655579,2.63219e-07,0.007503668,0,0.00001277168,0,,-3.40926e-06,,0,0
3001,	08/07/2022 01:29:30.737,214566,171366,1,2,0.0001589922,0.001662254,2.64285e-07,0.007567259,0,0.00001287984,0,,-2.167e-07,,0,0
3025,	08/07/2022 01:53:30.783,216006,172806,1,2,0.0001589899,0.001736641,2.76108e-07,0.007630847,0,0.00001298806,0,,-6.80762e-06,,0,0
3049,	08/07/2022 02:17:30.836,217446,174246,1,2,0.0001589896,0.001675606,2.66404e-07,0.007694438,0,0.00001309638,0,,-1.91209e-06,,0,0
3073,	08/07/2022 02:41:30.886,218886,175686,1,2,0.0001589849,0.001707077,2.71399e-07,0.007758025,0,0.00001320469,0,,1.72272e-06,,,
3097,	08/07/2022 03:05:30.932,220326,177126,1,2,0.0001589881,0.001732826,2.75499e-07,0.007821614,0,0.00001331299,0,,-1.86356e-06,,,
3121,	08/07/2022 03:29:30.975,221766,178566,1,2,0.0001589883,0.001696587,2.69737e-07,0.007885202,0,0.00001342132,0,,-6.02201e-06,,,
3145,	08/07/2022 03:53:31.027,223206.535,180006,1,2,0.0001589874,0.001721382,2.73678e-07,0.00794879,0,0.00001352967,0,,-5.79569e-07,,,
3169,	08/07/2022 04:17:31.078,224647,181447,1,2,0.0001589896,0.001728058,2.74743e-07,0.00801238,0,0.00001363803,0,,6.17553e-06,,,
3193,	08/07/2022 04:41:31.125,226087,182887,1,2,0.0001589881,0.001681328,2.67311e-07,0.00807597,0,0.00001374637,0,,-1.16387e-05,,0,0
3217,	08/07/2022 05:05:31.178,227527,184327,1,2,0.0001589896,0.001662254,2.64281e-07,0.008139559,0,0.00001385479,0,,-1.81386e-06,,0,0
3241,	08/07/2022 05:29:31.229,228967,185767,1,2,0.0001589849,0.001717567,2.73067e-07,0.008203149,0,0.00001396318,0,,-3.60214e-06,,0,0
3265,	08/07/2022 05:53:31.285,230407,187207,1,2,0.0001589864,0.001700401,2.70341e-07,0.008266738,0,0.00001407148,0,,-3.58878e-09,,0,0
3289,	08/07/2022 06:17:31.349,231847,188647,1,2,0.0001589908,0.001700401,2.70348e-07,0.008330329,0,0.00001417974,0,,-2.99281e-06,,0,0
3313,	08/07/2022 06:41:31.396,233287,190087,1,2,0.0001589891,0.001724243,2.74136e-07,0.008393919,0,0.00001428802,0,,5.24849e-06,,,
3337,	08/07/2022 07:05:31.444,234727,191526.867,1,2,0.0001589934,0.001712799,2.72324e-07,0.00845751,0,0.0000143963,0,,9.2103e-06,,,
3361,	08/07/2022 07:29:31.501,236167,192967,1,2,0.0001589863,0.001753807,2.78831e-07,0.0085211,0,0.00001450454,0,,-2.87839e-06,,,
3385,	08/07/2022 07:53:31.542,237607,194406.965,1,2,0.0001589896,0.001681328,2.67314e-07,0.008584688,0,0.00001461275,0,,4.40341e-06,,,
3409,	08/07/2022 08:17:31.590,239047.098,195847,1,2,0.0001589899,0.001666069,2.64888e-07,0.008648277,0,0.00001472085,0,,1.05786e-05,,,
3433,	08/07/2022 08:41:31.643,240487,197287.066,1,2,0.0001589918,0.001689911,2.68682e-07,0.008711868,0,0.00001482899,0,,-2.71733e-06,,0,0
3457,	08/07/2022 09:05:31.707,241927,198727,1,2,0.0001589922,0.001627922,2.58827e-07,0.008775459,0,0.00001493721,0,,-2.27969e-06,,0,0
3481,	08/07/2022 09:29:31.766,243367,200167,1,2,0.0001589914,0.001702309,2.70652e-07,0.008839049,0,0.00001504555,0,,-7.32133e-06,,0,0
3505,	08/07/2022 09:53:31.821,244807,201607,1,2,0.0001589927,0.001724243,2.74142e-07,0.00890264,0,0.00001515388,0,,9.17175e-06,,0,0
3529,	08/07/2022 10:17:31.867,246247,203047,1,2,0.0001589922,0.001731873,2.75354e-07,0.00896623,0,0.00001526227,0,,5.95003e-06,,0,0
3553,	08/07/2022 10:41:31.921,247687,204487,1,2,0.0001589936,0.00170517,2.71111e-07,0.009029821,0,0.00001537061,0,,-5.53261e-06,,,
3577,	08/07/2022 11:05:31.986,249127,205927,1,2,0.000158991,0.001732826,2.75504e-07,0.009093413,0,0.00001547894,0,,-2.38744e-06,,,
3601,	08/07/2022 11:29:32.029,250568,207367.452,1,2,0.0001589941,0.00167942,2.67018e-07,0.009157005,0,0.00001558726,0,,-4.97165e-06,,,
3625,	08/07/2022 11:53:32.081,252008,208808,1,2,0.0001589904,0.001662254,2.64282e-07,0.009220595,0,0.00001569558,0,,1.7043e-06,,,
3649,	08/07/2022 12:17:32.132,253448,210248,1,2,0.0001589924,0.001729965,2.75051e-07,0.009284185,0,0.00001580393,0,,4.81976e-06,,,
3673,	08/07/2022 12:41:32.179,254888,211688,1,2,0.0001589946,0.001707077,2.71416e-07,0.009347776,0,0.00001591234,0,,-9.2927e-07,,0,0
3697,	08/07/2022 13:05:32.242,256327.75,213128,1,2,0.000158992,0.001750946,2.78386e-07,0.009411369,0,0.00001602077,0,,-1.8756e-06,,0,0
3721,	08/07/2022 13:29:32.293,257768,214568,1,2,0.000158995,0.001670837,2.65655e-07,0.009474961,0,0.00001612923,0,,-4.3025e-06,,0,0
3745,	08/07/2022 13:53:32.339,259208,216008,1,2,0.0001589924,0.001740456,2.76719e-07,0.009538552,0,0.00001623749,0,,-2.89461e-07,,0,0
3769,	08/07/2022 14:17:32.386,260647.894,217448,1,2,0.0001589971,0.001694679,2.69449e-07,0.009602143,0,0.00001634571,0,,3.80405e-06,,0,0
3793,	08/07/2022 14:41:32.433,262088,218888,1,2,0.0001589932,0.00167942,2.67016e-07,0.009665734,0,0.00001645405,0,,-1.02486e-07,,,
3817,	08/07/2022 15:05:32.481,263528,220328,1,2,0.0001589981,0.001698494,2.70057e-07,0.009729327,0,0.00001656252,0,,-1.74439e-06,,,
3841,	08/07/2022 15:29:32.539,264968,221768,1,2,0.0001589953,0.00170517,2.71114e-07,0.009792918,0,0.00001667102,0,,5.5489e-06,,,
3865,	08/07/2022 15:53:32.582,266408,223208,1,2,0.0001589947,0.001688004,2.68384e-07,0.009856509,0,0.00001677955,0,,2.52411e-06,,,
3889,	08/07/2022 16:17:32.642,267848,224648,1,2,0.000158996,0.001703262,2.70812e-07,0.009920101,0,0.00001688807,0,,5.69579e-08,,,
3913,	08/07/2022 16:41:32.689,269288,226088,1,2,0.0001589957,0.001694679,2.69447e-07,0.009983691,0,0.00001699658,0,,3.29596e-06,,,
3937,	08/07/2022 17:05:32.746,270728,227528.169,1,2,0.0001589946,0.00166893,2.65351e-07,0.01004728,0,0.00001710508,0,,-3.15388e-07,,0,0
3961,	08/07/2022 17:29:32.790,272168.298,228968,1,2,0.0001589924,0.001768112,2.81116e-07,0.01011087,0,0.00001721368,0,,4.91759e-06,,0,0
3985,	08/07/2022 17:53:32.847,273608,230408,1,2,0.0001590003,0.00171566,2.7279e-07,0.01017446,0,0.00001732213,0,,-7.78226e-06,,0,0
4009,	08/07/2022 18:17:32.900,275048,231848,1,2,0.0001589985,0.00167942,2.67025e-07,0.01023806,0,0.00001743049,0,,1.1925e-05,,0,0
4033,	08/07/2022 18:41:32.961,276488,233288,1,2,0.0001589936,0.001719475,2.73386e-07,0.01030165,0,0.00001753882,0,,7.51413e-06,,0,0
4057,	08/07/2022 19:05:33.019,277929,234728,1,2,0.0001589953,0.001710892,2.72024e-07,0.01036524,0,0.00001764718,0,,6.94816e-06,,,
4081,	08/07/2022 19:29:33.073,279369,236168,1,2,0.0001589955,0.0017519,2.78544e-07,0.01042883,0,0.00001775571,0,,-8.31589e-06,,,
4105,	08/07/2022 19:53:33.132,280809,237608.555,1,2,0.0001589955,0.001717567,2.73085e-07,0.01049243,0,0.00001786419,0,,2.97146e-06,,,
4129,	08/07/2022 20:17:33.180,282249,239049,1,2,0.0001589924,0.001683235,2.67622e-07,0.01055601,0,0.00001797266,0,,1.90699e-06,,,
4153,	08/07/2022 20:41:33.234,283689,240489,1,2,0.0001589927,0.001717567,2.73081e-07,0.0106196,0,0.00001808111,0,,-9.63345e-06,,,
4177,	08/07/2022 21:05:33.286,285129,241929,1,2,0.0001589876,0.001713753,2.72465e-07,0.01068319,0,0.0000181895,0,,-2.68748e-06,,0,0
4201,	08/07/2022 21:29:33.333,286569,243368.756,1,2,0.0001589928,0.001717567,2.73081e-07,0.01074678,0,0.00001829789,0,,-3.75876e-07,,0,0
4225,	08/07/2022 21:53:33.379,288009,244809,1,2,0.000158992,0.001743317,2.77173e-07,0.01081037,0,0.00001840637,0,,-6.04081e-06,,0,0
4249,	08/07/2022 22:17:33.431,289448.939,246249,1,2,0.0001589895,0.001713753,2.72469e-07,0.01087396,0,0.00001851482,0,,9.09053e-06,,0,0
4273,	08/07/2022 22:41:33.482,290889,247689,1,2,0.0001589915,0.001698494,2.70046e-07,0.01093755,0,0.00001862326,0,,-7.7476e-06,,0,0
4297,	08/07/2022 23:05:33.538,292329.046,249129,1,2,0.000158991,0.001639366,2.60644e-07,0.01100114,0,0.00001873154,0,,-7.51383e-06,,,
4321,	08/07/2022 23:29:33.589,293769,250569,1,2,0.00015899,0.001649857,2.62311e-07,0.01106473,0,0.00001883973,0,,-1.15576e-05,,,
4345,	08/07/2022 23:53:33.655,295209,252009,1,2,0.0001589872,0.001688004,2.68371e-07,0.01112832,0,0.00001894787,0,,-9.383e-06,,,
4369,	08/08/2022 00:17:33.713,296649,253449,1,2,0.0001589872,0.001664162,2.6458e-07,0.01119191,0,0.00001905612,0,,3.03466e-06,,,
4393,	08/08/2022 00:41:33.778,298089,254889,1,2,0.0001589919,0.00170517,2.71108e-07,0.0112555,0,0.00001916445,0,,-1.92892e-06,,,
4417,	08/08/2022 01:05:33.824,299529,256329,1,2,0.0001589904,0.001660347,2.63979e-07,0.01131909,0,0.0000192728,0,,-1.30481e-05,,0,0
4441,	08/08/2022 01:29:33.892,300969,257769,1,2,0.0001589914,0.001726151,2.74443e-07,0.01138268,0,0.00001938115,0,,-1.15479e-06,,0,0
4465,	08/08/2022 01:53:33.940,302409,259209,1,2,0.0001589878,0.001653671,2.62914e-07,0.01144627,0,0.0000194895,0,,-1.53177e-06,,0,0
4489,	08/08/2022 02:17:34.003,303850,260649,1,2,0.0001589878,0.001738548,2.76408e-07,0.01150986,0,0.0000195978,0,,7.24488e-06,,0,0
4513,	08/08/2022 02:41:34.049,305290,262089,1,2,0.0001589918,0.001747131,2.7778e-07,0.01157345,0,0.00001970604,0,,-9.65811e-06,,0,0
4537,	08/08/2022 03:05:34.105,306729.613,263530,1,2,0.0001589922,0.001726151,2.74445e-07,0.01163704,0,0.00001981429,0,,2.6244e-06,,,
4561,	08/08/2022 03:29:34.152,308170,264970,1,2,0.0001589919,0.001688004,2.68379e-07,0.01170063,0,0.00001992259,0,,1.20075e-05,,,
4585,	08/08/2022 03:53:34.207,309610,266410,1,2,0.0001589886,0.001738548,2.76409e-07,0.01176422,0,0.00002003084,0,,-5.38959e-06,,,
4609,	08/08/2022 04:17:34.266,311050,267850,1,2,0.0001589849,0.001722336,2.73825e-07,0.01182781,0,0.00002013907,0,,5.96202e-06,,,
4633,	08/08/2022 04:41:34.323,312490,269289.746,1,2,0.000158984,0.00165844,2.63665e-07,0.0118914,0,0.00002024734,0,,3.95396e-06,,,
4657,	08/08/2022 05:05:34.375,313930,270730,1,2,0.0001589829,0.001741409,2.76854e-07,0.01195499,0,0.00002035552,0,,6.7002e-08,,0,0
4681,	08/08/2022 05:29:34.425,315370,272170,1,2,0.0001589888,0.001707077,2.71406e-07,0.01201858,0,0.00002046359,0,,2.43107e-06,,0,0
4705,	08/08/2022 05:53:34.472,316810,273609.895,1,2,0.0001589877,0.001683235,2.67614e-07,0.01208217,0,0.00002057181,0,,-9.39669e-06,,0,0
4729,	08/08/2022 06:17:34.524,318250.032,275050,1,2,0.0001589869,0.001686096,2.68067e-07,0.01214575,0,0.00002068003,0,,1.5088e-05,,0,0
4753,	08/08/2022 06:41:34.582,319690,276490,1,2,0.0001589867,0.001694679,2.69431e-07,0.01220934,0,0.00002078817,0,,5.63332e-06,,0,0
4777,	08/08/2022 07:05:34.639,321130,277930,1,2,0.0001589886,0.001750946,2.7838e-07,0.01227293,0,0.00002089632,0,,3.76411e-06,,,
4801,	08/08/2022 07:29:34.689,322570,279370,1,2,0.0001589882,0.001653671,2.62914e-07,0.01233652,0,0.00002100449,0,,7.87119e-07,,,
4825,	08/08/2022 07:53:34.744,324010,280810,1,2,0.0001589849,0.001729965,2.75038e-07,0.01240011,0,0.00002111262,0,,6.4532e-07,,,
4849,	08/08/2022 08:17:34.793,325450,282250,1,2,0.0001589869,0.001626015,2.58515e-07,0.01246369,0,0.00002122079,0,,-5.56357e-07,,,
4873,	08/08/2022 08:41:34.836,326890,283690,1,2,0.0001589853,0.001707077,2.714e-07,0.01252728,0,0.00002132876,0,,2.61191e-06,,,
4897,	08/08/2022 09:05:34.888,328330,285130,1,2,0.0001589876,0.001626015,2.58516e-07,0.01259087,0,0.00002143677,0,,1.90815e-07,,0,0
4921,	08/08/2022 09:29:34.944,329770,286570,1,2,0.0001589906,0.001667023,2.65041e-07,0.01265446,0,0.00002154476,0,,6.1355e-08,,0,0
4945,	08/08/2022 09:53:34.985,331210,288010,1,2,0.0001589911,0.001770973,2.81569e-07,0.01271805,0,0.00002165289,0,,-2.22459e-06,,0,0
4969,	08/08/2022 10:17:35.036,332651,289450,1,2,0.0001589876,0.001686096,2.68068e-07,0.01278164,0,0.00002176112,0,,-6.41577e-07,,0,0
4993,	08/08/2022 10:41:35.089,334091,290891,1,2,0.0001589915,0.001719475,2.73382e-07,0.01284523,0,0.00002186927,0,,-2.44869e-06,,0,0
5017,	08/08/2022 11:05:35.129,335530.637,292331,1,2,0.0001589915,0.001717567,2.73079e-07,0.01290882,0,0.00002197749,0,,-1.32979e-06,,,
5041,	08/08/2022 11:29:35.180,336971,293771,1,2,0.0001589895,0.00170517,2.71104e-07,0.01297241,0,0.0000220857,0,,2.30413e-06,,,
5065,	08/08/2022 11:53:35.237,338411,295211,1,2,0.0001589911,0.001702309,2.70652e-07,0.013036,0,0.000022194,0,,2.61616e-06,,,
5089,	08/08/2022 12:17:35.290,339851,296651,1,2,0.0001589888,0.001651764,2.62612e-07,0.01309959,0,0.00002230238,0,,-3.2216e-06,,,
5113,	08/08/2022 12:41:35.336,341291,298091,1,2,0.0001589899,0.001675606,2.66404e-07,0.01316318,0,0.00002241059,0,,-8.56375e-07,,,
5137,	08/08/2022 13:05:35.388,342731,299531,1,2,0.0001589918,0.001653671,2.6292e-07,0.01322677,0,0.00002251876,0,,-8.75881e-06,,0,0
5161,	08/08/2022 13:29:35.444,344171,300971,1,2,0.0001589904,0.001672745,2.6595e-07,0.01329036,0,0.00002262686,0,,-3.59344e-06,,0,0
5185,	08/08/2022 13:53:35.488,345611,302411,1,2,0.0001589928,0.001724243,2.74142e-07,0.01335395,0,0.00002273496,0,,-3.83781e-06,,0,0
5209,	08/08/2022 14:17:35.547,347051,303851,1,2,0.0001589941,0.001696587,2.69747e-07,0.01341754,0,0.0000228432,0,,1.35081e-05,,0,0
5233,	08/08/2022 14:41:35.603,348491,305291,1,2,0.0001589927,0.001674652,2.66257e-07,0.01348113,0,0.00002295138,0,,-4.58311e-07,,0,0
5257,	08/08/2022 15:05:35.665,349931,306731,1,2,0.0001589881,0.001662254,2.64279e-07,0.01354472,0,0.00002305952,0,,-3.24384e-06,,,
5281,	08/08/2022 15:29:35.717,351371,308171.14,1,2,0.0001589913,0.001708984,2.71714e-07,0.01360831,0,0.00002316765,0,,2.8416e-06,,,
5305,	08/08/2022 15:53:35.768,352811,309611,1,2,0.0001589911,0.00171566,2.72775e-07,0.0136719,0,0.00002327583,0,,-1.66731e-06,,,
5329,	08/08/2022 16:17:35.822,354251,311051,1,2,0.0001589892,0.001740456,2.76714e-07,0.01373549,0,0.00002338399,0,,7.54758e-07,,,
5353,	08/08/2022 16:41:35.873,355691,312491,1,2,0.0001589853,0.001660347,2.63971e-07,0.01379908,0,0.00002349198,0,,-4.75627e-06,,,
5377,	08/08/2022 17:05:35.920,357131,313931,1,2,0.00015899,0.00177002,2.81415e-07,0.01386267,0,0.00002359996,0,,-8.82017e-06,,0,0
5401,	08/08/2022 17:29:35.967,358571,315371,1,2,0.0001589904,0.001722336,2.73835e-07,0.01392626,0,0.00002370797,0,,9.73525e-07,,0,0
5425,	08/08/2022 17:53:36.020,360012,316811,1,2,0.0001589904,0.001662254,2.64282e-07,0.01398985,0,0.00002381601,0,,4.21749e-06,,0,0
5449,	08/08/2022 18:17:36.076,361452,318251,1,2,0.0001589913,0.00170517,2.71107e-07,0.01405344,0,0.00002392417,0,,-9.32737e-06,,0,0
5473,	08/08/2022 18:41:36.127,362892,319692,1,2,0.0001589913,0.001674652,2.66255e-07,0.01411703,0,0.00002403235,0,,2.65629e-06,,0,0
5497,	08/08/2022 19:05:36.173,364332,321132,1,2,0.0001589939,0.001694679,2.69444e-07,0.01418062,0,0.00002414049,0,,-5.07977e-06,,,
5521,	08/08/2022 19:29:36.229,365772,322572,1,2,0.0001589905,0.001694679,2.69438e-07,0.01424421,0,0.00002424864,0,,6.84532e-07,,,
5545,	08/08/2022 19:53:36.282,367212,324012,1,2,0.0001589888,0.001713753,2.72468e-07,0.0143078,0,0.00002435678,0,,-1.04272e-06,,,
5569,	08/08/2022 20:17:36.328,368652,325452,1,2,0.0001589882,0.001698494,2.70041e-07,0.01437139,0,0.00002446494,0,,-7.0122e-07,,,
5593,	08/08/2022 20:41:36.371,370091.879,326892,1,2,0.0001589924,0.001686096,2.68076e-07,0.01443498,0,0.00002457319,0,,5.40237e-07,,,
5617,	08/08/2022 21:05:36.428,371532,328332,1,2,0.0001589888,0.001698494,2.70042e-07,0.01449857,0,0.00002468141,0,,-3.95595e-07,,0,0
5641,	08/08/2022 21:29:36.486,372972,329772,1,2,0.0001589874,0.001731873,2.75346e-07,0.01456216,0,0.00002478957,0,,-7.40419e-08,,0,0
5665,	08/08/2022 21:53:36.537,374412,331212,1,2,0.0001589927,0.001741409,2.76871e-07,0.01462575,0,0.00002489761,0,,1.36245e-05,,0,0
5689,	08/08/2022 22:17:36.585,375852,332652.008,1,2,0.0001589932,0.00167942,2.67016e-07,0.01468934,0,0.00002500568,0,,-3.80308e-06,,0,0
5713,	08/08/2022 22:41:36.636,377292,334092,1,2,0.0001589934,0.001724243,2.74143e-07,0.01475293,0,0.0000251138,0,,-3.87532e-06,,0,0
5737,	08/08/2022 23:05:36.693,378732.201,335532,1,2,0.000158998,0.001694679,2.69451e-07,0.01481653,0,0.000025222,0,,-4.14106e-07,,,
5761,	08/08/2022 23:29:36.734,380172,336972,1,2,0.0001589955,0.001698494,2.70053e-07,0.01488012,0,0.00002533019,0,,-2.95779e-06,,,
5785,	08/08/2022 23:53:36.792,381612,338412,1,2,0.000158996,0.001712799,2.72328e-07,0.01494371,0,0.0000254384,0,,1.31865e-05,,,
5809,	08/09/2022 00:17:36.843,383052,339852,1,2,0.0001589939,0.001677513,2.66714e-07,0.0150073,0,0.00002554659,0,,7.01444e-06,,,
5833,	08/09/2022 00:41:36.895,384492,341292,1,2,0.0001589955,0.001732826,2.75512e-07,0.01507089,0,0.00002565474,0,,1.2063e-05,,,
5857,	08/09/2022 01:05:36.945,385932.453,342732,1,2,0.000158992,0.001738548,2.76415e-07,0.01513448,0,0.00002576291,0,,8.58442e-06,,,
5881,	08/09/2022 01:29:36.999,387373,344172,1,2,0.0001589913,0.001636505,2.6019e-07,0.01519808,0,0.00002587105,0,,4.83328e-06,,0,0
5905,	08/09/2022 01:53:37.050,388812.558,345612,1,2,0.0001589946,0.001707077,2.71416e-07,0.01526167,0,0.00002597914,0,,-8.11279e-06,,0,0
5929,	08/09/2022 02:17:37.100,390253,347053,1,2,0.0001589939,0.001732826,2.75509e-07,0.01532526,0,0.00002608725,0,,-8.80317e-06,,0,0
5953,	08/09/2022 02:41:37.164,391693,348493,1,2,0.0001589939,0.001738548,2.76419e-07,0.01538885,0,0.00002619534,0,,1.75535e-06,,0,0
5977,	08/09/2022 03:05:37.220,393133,349933,1,2,0.0001589914,0.001664162,2.64587e-07,0.01545244,0,0.00002630329,0,,-3.07014e-06,,0,0
6001,	08/09/2022 03:29:37.268,394573,351373,1,2,0.00015899,0.001707077,2.71408e-07,0.01551603,0,0.00002641117,0,,-4.91613e-06,,,
6025,	08/09/2022 03:53:37.332,396013,352813,1,2,0.0001589919,0.001702309,2.70653e-07,0.01557962,0,0.00002651916,0,,1.42845e-05,,,
6049,	08/09/2022 04:17:37.386,397453,354252.809,1,2,0.0001589877,0.001700401,2.70343e-07,0.01564321,0,0.00002662727,0,,7.09358e-06,,,
6073,	08/09/2022 04:41:37.441,398892.949,355693,1,2,0.0001589915,0.001700401,2.70349e-07,0.0157068,0,0.00002673527,0,,-4.21442e-06,,,
6097,	08/09/2022 05:05:37.486,400333,357133,1,2,0.0001589892,0.00177002,2.81414e-07,0.01577039,0,0.00002684329,0,,-7.12952e-06,,,
6121,	08/09/2022 05:29:37.551,401773,358573,1,2,0.0001589961,0.001677513,2.66718e-07,0.01583398,0,0.00002695132,0,,-1.17044e-05,,0,0
6145,	08/09/2022 05:53:37.604,403213,360013,1,2,0.0001589956,0.001688004,2.68385e-07,0.01589757,0,0.00002705932,0,,1.16061e-06,,0,0
6169,	08/09/2022 06:17:37.656,404653,361453.079,1,2,0.0001589948,0.00166893,2.65351e-07,0.01596117,0,0.00002716733,0,,-4.09867e-06,,0,0
6193,	08/09/2022 06:41:37.702,406093,362893,1,2,0.0001589914,0.001660347,2.63981e-07,0.01602476,0,0.0000272752,0,,5.67409e-08,,0,0
6217,	08/09/2022 07:05:37.747,407533,364333,1,2,0.0001589904,0.001703262,2.70802e-07,0.01608835,0,0.00002738289,0,,-1.05903e-05,,0,0
6241,	08/09/2022 07:29:37.796,408973.304,365773,1,2,0.0001589899,0.001710892,2.72015e-07,0.01615194,0,0.00002749071,0,,-2.82314e-06,,,
6265,	08/09/2022 07:53:37.846,410413,367213,1,2,0.0001589885,0.001710892,2.72012e-07,0.01621553,0,0.00002759859,0,,1.1362e-05,,,
6289,	08/09/2022 08:17:37.886,411853,368653,1,2,0.000158989,0.001760483,2.79897e-07,0.01627912,0,0.00002770654,0,,-7.00161e-06,,,
6313,	08/09/2022 08:41:37.923,413293,370093,1,2,0.0001589904,0.001708984,2.71712e-07,0.01634271,0,0.00002781455,0,,-3.36125e-06,,,
6337,	08/09/2022 09:05:37.973,414733.481,371533,1,2,0.0001589908,0.001627922,2.58825e-07,0.0164063,0,0.00002792257,0,,8.14712e-06,,,
6361,	08/09/2022 09:29:38.022,416174,372973,1,2,0.0001589967,0.001732826,2.75514e-07,0.01646989,0,0.00002803058,0,,-8.71783e-06,,0,0
6385,	08/09/2022 09:53:38.074,417613.582,374413,1,2,0.0001589939,0.001749039,2.78087e-07,0.01653348,0,0.00002813861,0,,-2.66233e-06,,0,0
6409,	08/09/2022 10:17:38.122,419054,375853.545,1,2,0.0001589957,0.001675606,2.66414e-07,0.01659707,0,0.00002824668,0,,9.16265e-07,,0,0
6433,	08/09/2022 10:41:38.161,420494,377293.584,1,2,0.0001589929,0.001689911,2.68684e-07,0.01666066,0,0.00002835484,0,,5.51657e-06,,0,0
6457,	08/09/2022 11:05:38.212,421934,378733.635,1,2,0.0001589886,0.00170517,2.71103e-07,0.01672425,0,0.000028463,0,,2.5147e-06,,0,0
6481,	08/09/2022 11:29:38.261,423374,380174,1,2,0.0001589936,0.001804352,2.8688e-07,0.01678784,0,0.00002857113,0,,2.08109e-06,,,
6505,	08/09/2022 11:53:38.318,424814,381614,1,2,0.0001589877,0.001655579,2.63217e-07,0.01685143,0,0.00002867925,0,,7.56351e-06,,,
6529,	08/09/2022 12:17:38.379,426254,383054,1,2,0.0001589933,0.001677513,2.66713e-07,0.01691502,0,0.00002878744,0,,-7.5949e-06,,,
6553,	08/09/2022 12:41:38.430,427694,384494,1,2,0.0001589919,0.001703262,2.70805e-07,0.01697861,0,0.00002889576,0,,3.15828e-06,,,
6577,	08/09/2022 13:05:38.475,429134,385934,1,2,0.0001589955,0.001655579,2.6323e-07,0.0170422,0,0.00002900409,0,,-1.4909e-06,,,
6601,	08/09/2022 13:29:38.514,430574,387374,1,2,0.0001589952,0.001713753,2.72479e-07,0.0171058,0,0.0000291124,0,,-2.48841e-06,,0,0
6625,	08/09/2022 13:53:38.569,432014,388814,1,2,0.0001589934,0.001656532,2.63378e-07,0.01716939,0,0.00002922073,0,,3.13097e-06,,0,0
6649,	08/09/2022 14:17:38.610,433454,390254,1,2,0.0001589995,0.001691818,2.68998e-07,0.01723298,0,0.00002932903,0,,1.95674e-06,,0,0
6673,	08/09/2022 14:41:38.663,434894,391694,1,2,0.0001589934,0.001651764,2.6262e-07,0.01729657,0,0.00002943725,0,,-6.3364e-06,,0,0
6697,	08/09/2022 15:05:38.719,436334,393134.142,1,2,0.0001589897,0.001757622,2.79444e-07,0.01736016,0,0.00002954559,0,,-2.63902e-06,,0,0
6721,	08/09/2022 15:29:38.768,437774,394574,1,2,0.0001589869,0.00167942,2.67006e-07,0.01742375,0,0.00002965393,0,,-4.99396e-07,,,
6745,	08/09/2022 15:53:38.826,439214,396014,1,2,0.0001589913,0.001760483,2.79901e-07,0.01748734,0,0.00002976226,0,,3.91197e-06,,,
6769,	08/09/2022 16:17:38.881,440654,397454,1,2,0.0001589938,0.001693726,2.69292e-07,0.01755093,0,0.00002987055,0,,1.12314e-06,,,
6793,	08/09/2022 16:41:38.947,442094,398894,1,2,0.0001589919,0.001710892,2.72018e-07,0.01761452,0,0.0000299788,0,,-3.76572e-06,,,
6817,	08/09/2022 17:05:38.980,443534.488,400334,1,2,0.0001589936,0.001717567,2.73082e-07,0.01767812,0,0.00003008714,0,,2.46952e-06,,,
6841,	08/09/2022 17:29:39.035,444975,401774,1,2,0.0001589914,0.001694679,2.69439e-07,0.01774171,0,0.00003019551,0,,-1.22298e-06,,0,0
6865,	08/09/2022 17:53:39.083,446415,403215,1,2,0.0001589914,0.001721382,2.73685e-07,0.0178053,0,0.0000303038,0,,5.76312e-06,,0,0
6889,	08/09/2022 18:17:39.132,447855,404655,1,2,0.0001589947,0.001646996,2.61864e-07,0.01786889,0,0.00003041213,0,,5.18328e-06,,0,0
6913,	08/09/2022 18:41:39.184,449295,406095,1,2,0.0001589899,0.001696587,2.6974e-07,0.01793248,0,0.00003052034,0,,2.96346e-06,,0,0
6937,	08/09/2022 19:05:39.239,450735,407535,1,2,0.0001589908,0.001724243,2.74139e-07,0.01799607,0,0.00003062845,0,,8.4922e-06,,0,0
6961,	08/09/2022 19:29:39.298,452175,408975,1,2,0.0001589956,0.001689911,2.68688e-07,0.01805966,0,0.00003073659,0,,-8.75689e-06,,,
6985,	08/09/2022 19:53:39.343,453615,410415,1,2,0.0001589995,0.001649857,2.62326e-07,0.01812325,0,0.00003084477,0,,-8.16097e-06,,,
7009,	08/09/2022 20:17:39.391,455055,411855,1,2,0.0001589956,0.001647949,2.62017e-07,0.01818684,0,0.00003095285,0,,1.43549e-06,,,
7033,	08/09/2022 20:41:39.438,456495,413295,1,2,0.0001589943,0.001627922,2.5883e-07,0.01825043,0,0.00003106094,0,,-2.60977e-07,,,
7057,	08/09/2022 21:05:39.490,457935,414735,1,2,0.0001589932,0.001732826,2.75508e-07,0.01831403,0,0.00003116902,0,,2.78845e-06,,,
7081,	08/09/2022 21:29:39.538,459375,416174.961,1,2,0.0001589919,0.001712799,2.72321e-07,0.01837762,0,0.0000312771,0,,-8.14078e-07,,0,0
7105,	08/09/2022 21:53:39.600,460815.108,417615,1,2,0.0001589974,0.001745224,2.77486e-07,0.01844121,0,0.00003138524,0,,-5.37059e-06,,0,0
7129,	08/09/2022 22:17:39.641,462255,419055,1,2,0.0001589927,0.001729965,2.75052e-07,0.0185048,0,0.00003149341,0,,-4.34011e-06,,0,0
7153,	08/09/2022 22:41:39.695,463695,420495,1,2,0.0001589942,0.0017519,2.78542e-07,0.01856839,0,0.00003160163,0,,-1.55562e-06,,0,0
7177,	08/09/2022 23:05:39.754,465135,421935,1,2,0.0001589908,0.001721382,2.73684e-07,0.01863198,0,0.00003170985,0,,-3.07487e-06,,0,0
7201,	08/09/2022 23:29:39.810,466575,423375.233,1,2,0.0001589933,0.001693726,2.69291e-07,0.01869557,0,0.00003181805,0,,6.16271e-06,,,
7225,	08/09/2022 23:53:39.868,468015,424815,1,2,0.0001589924,0.001653671,2.62921e-07,0.01875916,0,0.00003192622,0,,-3.20053e-07,,,
7249,	08/10/2022 00:17:39.913,469455,426255,1,2,0.0001589939,0.001656532,2.63378e-07,0.01882276,0,0.00003203442,0,,-2.56424e-06,,,
7273,	08/10/2022 00:41:39.950,470895,427695,1,2,0.0001589946,0.001688004,2.68384e-07,0.01888635,0,0.00003214256,0,,-4.7257e-06,,,
7297,	08/10/2022 01:05:40.012,472336,429135.435,1,2,0.0001589933,0.001736641,2.76114e-07,0.01894994,0,0.00003225072,0,,-5.45106e-06,,,
7321,	08/10/2022 01:29:40.064,473776,430575,1,2,0.0001589858,0.001713753,2.72462e-07,0.01901353,0,0.00003235888,0,,7.61831e-07,,0,0
7345,	08/10/2022 01:53:40.115,475216,432016,1,2,0.0001589876,0.001776695,2.82472e-07,0.01907711,0,0.00003246707,0,,-1.20424e-05,,0,0
7369,	08/10/2022 02:17:40.168,476656,433456,1,2,0.0001589899,0.001738548,2.76412e-07,0.01914071,0,0.00003257517,0,,6.30714e-06,,0,0
7393,	08/10/2022 02:41:40.228,478096,434896,1,2,0.0001589897,0.001666069,2.64888e-07,0.01920429,0,0.00003268336,0,,-6.86498e-06,,0,0
7417,	08/10/2022 03:05:40.261,479536,436336,1,2,0.0001589925,0.001722336,2.73839e-07,0.01926788,0,0.00003279146,0,,5.84334e-07,,0,0
7441,	08/10/2022 03:29:40.320,480976,437776,1,2,0.0001589942,0.001766205,2.80816e-07,0.01933148,0,0.00003289949,0,,-2.52543e-06,,,
7465,	08/10/2022 03:53:40.372,482416,439216,1,2,0.0001589914,0.001656532,2.63374e-07,0.01939507,0,0.00003300757,0,,8.30232e-06,,,
7489,	08/10/2022 04:17:40.431,483856,440656,1,2,0.0001589933,0.001717567,2.73082e-07,0.01945866,0,0.00003311568,0,,-6.99694e-06,,,
7513,	08/10/2022 04:41:40.490,485296,442096,1,2,0.000158995,0.001747131,2.77785e-07,0.01952225,0,0.00003322383,0,,-4.58565e-06,,,
7537,	08/10/2022 05:05:40.537,486736,443536,1,2,0.0001589872,0.001656532,2.63367e-07,0.01958584,0,0.00003333195,0,,-1.74334e-06,,,
7561,	08/10/2022 05:29:40.589,488176,444976,1,2,0.0001589906,0.001689911,2.6868e-07,0.01964943,0,0.0000334401,0,,3.40332e-06,,0,0
7585,	08/10/2022 05:53:40.651,489616,446416.074,1,2,0.0001589888,0.001696587,2.69738e-07,0.01971302,0,0.00003354828,0,,1.97906e-06,,0,0
7609,	08/10/2022 06:17:40.700,491056,447856,1,2,0.0001589864,0.001647949,2.62001e-07,0.01977661,0,0.00003365643,0,,1.49947e-06,,0,0
7633,	08/10/2022 06:41:40.758,492496,449296.181,1,2,0.000158991,0.001688004,2.68377e-07,0.0198402,0,0.00003376442,0,,-5.48911e-06,,0,0
7657,	08/10/2022 07:05:40.804,493936,450736.227,1,2,0.0001589902,0.001646996,2.61856e-07,0.01990379,0,0.0000338723,0,,-5.88828e-06,,0,0
7681,	08/10/2022 07:29:40.867,495376,452176,1,2,0.0001589911,0.00166893,2.65345e-07,0.01996738,0,0.00003398023,0,,-1.08976e-05,,,
7705,	08/10/2022 07:53:40.919,496816,453616,1,2,0.0001589925,0.001660347,2.63983e-07,0.02003097,0,0.00003408811,0,,6.38835e-06,,,
7729,	08/10/2022 08:17:40.975,498256,455056,1,2,0.0001589896,0.001721382,2.73682e-07,0.02009456,0,0.00003419609,0,,-5.75149e-06,,,
7753,	08/10/2022 08:41:41.035,499697,456496,1,2,0.0001589891,0.001731873,2.75349e-07,0.02015815,0,0.00003430416,0,,5.70066e-06,,,
7777,	08/10/2022 09:05:41.083,501137,457937,1,2,0.0001589904,0.001624107,2.58217e-07,0.02022174,0,0.00003441234,0,,4.23932e-06,,,
7801,	08/10/2022 09:29:41.134,502577,459377,1,2,0.0001589918,0.001707077,2.71411e-07,0.02028533,0,0.00003452051,0,,-1.3533e-07,,,
7825,	08/10/2022 09:53:41.187,504017,460817,1,2,0.0001589864,0.00166893,2.65337e-07,0.02034892,0,0.00003462868,0,,8.10454e-06,,0,0
7849,	08/10/2022 10:17:41.244,505457,462257,1,2,0.000158991,0.001691818,2.68984e-07,0.02041251,0,0.00003473673,0,,-2.98242e-06,,0,0
7873,	08/10/2022 10:41:41.294,506897,463697,1,2,0.000158991,0.001707077,2.7141e-07,0.0204761,0,0.00003484483,0,,-1.14845e-06,,0,0
7897,	08/10/2022 11:05:41.344,508337,465137,1,2,0.0001589925,0.001710892,2.72019e-07,0.02053969,0,0.000034953,0,,-1.48396e-06,,0,0
7921,	08/10/2022 11:29:41.405,509776.913,466577,1,2,0.0001589953,0.001689911,2.68688e-07,0.02060328,0,0.00003506119,0,,1.10316e-06,,0,0
7945,	08/10/2022 11:53:41.447,511217,468017,1,2,0.000158996,0.001664162,2.64595e-07,0.02066688,0,0.00003516941,0,,-1.05166e-05,,,
7969,	08/10/2022 12:17:41.496,512657,469457,1,2,0.0001589957,0.001686096,2.68082e-07,0.02073047,0,0.00003527759,0,,3.92453e-06,,,
7993,	08/10/2022 12:41:41.547,514097,470896.97,1,2,0.0001589891,0.001743317,2.77168e-07,0.02079406,0,0.00003538578,0,,-4.66111e-06,,,
8017,	08/10/2022 13:05:41.600,515537,472337,1,2,0.0001589911,0.001721382,2.73684e-07,0.02085765,0,0.00003549399,0,,-5.57583e-06,,,
8041,	08/10/2022 13:29:41.650,516977,473777,1,2,0.0001589918,0.001724243,2.7414e-07,0.02092124,0,0.00003560225,0,,-4.33893e-06,,,
8065,	08/10/2022 13:53:41.700,518417,475217,1,2,0.0001589925,0.001750946,2.78387e-07,0.02098483,0,0.00003571049,0,,-3.86456e-06,,0,0
8089,	08/10/2022 14:17:41.742,519857,476657,1,2,0.0001589891,0.001685143,2.67919e-07,0.02104842,0,0.00003581865,0,,-8.99217e-07,,0,0
8113,	08/10/2022 14:41:41.788,521297,478097,1,2,0.0001589948,0.001745224,2.77482e-07,0.02111201,0,0.0000359268,0,,-4.56525e-06,,0,0
8137,	08/10/2022 15:05:41.839,522737,479537,1,2,0.0001589974,0.001729965,2.7506e-07,0.0211756,0,0.00003603491,0,,7.87652e-06,,0,0
8161,	08/10/2022 15:29:41.897,524177,480977.32,1,2,0.0001589967,0.001685143,2.67932e-07,0.02123919,0,0.000036143,0,,2.19109e-06,,0,0
8185,	08/10/2022 15:53:41.948,525617,482417,1,2,0.0001589925,0.001693726,2.6929e-07,0.02130278,0,0.00003625116,0,,-1.07628e-06,,,
8209,	08/10/2022 16:17:41.991,527057,483857,1,2,0.0001589877,0.001696587,2.69736e-07,0.02136637,0,0.00003635928,0,,-1.0486e-05,,,
8233,	08/10/2022 16:41:42.031,528497.539,485297,1,2,0.0001589896,0.001707077,2.71407e-07,0.02142996,0,0.00003646736,0,,-2.1222e-06,,,
8257,	08/10/2022 17:05:42.083,529938,486738,1,2,0.0001589922,0.001662254,2.64285e-07,0.02149355,0,0.0000365756,0,,-7.79795e-06,,,
8281,	08/10/2022 17:29:42.126,531378,488178,1,2,0.0001589943,0.001753807,2.78845e-07,0.02155714,0,0.00003668392,0,,-8.64541e-06,,,
8305,	08/10/2022 17:53:42.182,532817.69,489618,1,2,0.0001589942,0.001703262,2.70809e-07,0.02162073,0,0.00003679219,0,,4.82888e-06,,0,0
8329,	08/10/2022 18:17:42.234,534258,491058,1,2,0.0001589943,0.001681328,2.67322e-07,0.02168432,0,0.00003690046,0,,-1.69615e-07,,0,0
8353,	08/10/2022 18:41:42.284,535698,492498,1,2,0.0001589971,0.001717567,2.73088e-07,0.02174792,0,0.00003700866,0,,-2.24785e-06,,0,0
8377,	08/10/2022 19:05:42.336,537138,493937.759,1,2,0.0001589925,0.001691818,2.68986e-07,0.0218115,0,0.00003711688,0,,-6.59608e-06,,0,0
8401,	08/10/2022 19:29:42.384,538578,495378,1,2,0.0001589952,0.001696587,2.69749e-07,0.02187509,0,0.000037225,0,,-3.28512e-06,,0,0
8425,	08/10/2022 19:53:42.436,540017.944,496818,1,2,0.0001589876,0.00170517,2.71101e-07,0.02193868,0,0.00003733304,0,,5.68909e-06,,,
8449,	08/10/2022 20:17:42.487,541458,498258,1,2,0.0001589871,0.001667023,2.65035e-07,0.02200227,0,0.00003744113,0,,-1.68136e-06,,,
8473,	08/10/2022 20:41:42.536,542898,499697.959,1,2,0.0001589936,0.001698494,2.7005e-07,0.02206586,0,0.00003754926,0,,-2.74279e-07,,,
8497,	08/10/2022 21:05:42.586,544338,501138,1,2,0.0001589915,0.001688004,2.68378e-07,0.02212945,0,0.00003765743,0,,1.21836e-05,,,
8521,	08/10/2022 21:29:42.650,545778,502578,1,2,0.0001589952,0.001719475,2.73388e-07,0.02219304,0,0.00003776562,0,,1.98971e-06,,,
8545,	08/10/2022 21:53:42.696,547218,504018,1,2,0.0001589914,0.001740456,2.76718e-07,0.02225664,0,0.00003787385,0,,9.33196e-06,,0,0
8569,	08/10/2022 22:17:42.745,548658,505458,1,2,0.0001589938,0.001670837,2.65653e-07,0.02232023,0,0.00003798206,0,,-7.95851e-07,,0,0
8593,	08/10/2022 22:41:42.809,550098.317,506898,1,2,0.0001589947,0.001702309,2.70658e-07,0.02238382,0,0.00003809033,0,,-5.4759e-06,,0,0
8617,	08/10/2022 23:05:42.865,551538,508338,1,2,0.0001589936,0.001674652,2.66259e-07,0.02244741,0,0.00003819851,0,,4.35466e-06,,0,0
8641,	08/10/2022 23:29:42.929,552978,509778,1,2,0.0001589948,0.001702309,2.70658e-07,0.02251101,0,0.00003830664,0,,4.29579e-06,,0,0
8665,	08/10/2022 23:53:42.989,554418,511218,1,2,0.0001589953,0.001693726,2.69294e-07,0.0225746,0,0.0000384148,0,,5.82887e-06,,,
8689,	08/11/2022 00:17:43.035,555859,512658.458,1,2,0.0001589927,0.001698494,2.70048e-07,0.02263819,0,0.00003852295,0,,2.63835e-06,,,
8713,	08/11/2022 00:41:43.089,557299,514099,1,2,0.0001589943,0.001696587,2.69748e-07,0.02270178,0,0.00003863109,0,,-1.32027e-06,,,
8737,	08/11/2022 01:05:43.143,558738.651,515539,1,2,0.0001589925,0.001719475,2.73384e-07,0.02276537,0,0.00003873922,0,,6.68123e-06,,,
8761,	08/11/2022 01:29:43.196,560179,516978.619,1,2,0.0001589938,0.001785278,2.83848e-07,0.02282896,0,0.00003884721,0,,-3.29886e-06,,,
8785,	08/11/2022 01:53:24.758,561600,518400,1,2,0,0.001683235,0,0.02289173,0,0.00003895388,0,,1.01831e-06,0,0,0
8786,	08/30/2022 16:59:21.914,561600,518400,1,2,0.0001589964,0.001596451,2.5383e-07,0.02289201,0,0.00003900001,0,,0,0,0,0