File: Cell-test-data/SiMP-LFP-SS1/JB2_SiMP-LFP-SS1_Channel_72_StatisticByStep.CSV
Date_Time                    ,Test Time (s),Step Time (s),Cycle Index,Step Index,Current (A),Voltage (V),Power (W),Charge Capacity (Ah),Discharge Capacity (Ah),Charge Energy (Wh),Discharge Energy (Wh),Charge Time (s),Discharge Time (s),V_Max_On_Cycle (V),Coulombic Efficiency (%),mAh/g
	08/05/2022 01:53:56.815,43200,43200,1.00,1.00,0,0.1817322,0,0,0,0,0,0,0,0,0,,
	08/07/2022 21:08:11.405,285255,56663.3,2.00,3.00,-0.0001590119,2.499996,-0.000397529,0.00259326,0.002502319,0.008403705,0.007418886,58714.14,56654.82,0,96.49319,,
	08/09/2022 08:38:31.885,413075,7052.55,4.00,6.00,-0.001060027,2.499968,-0.00265003,0.002242981,0.002076286,0.007361541,0.006020002,7617.745,7051.489,0,92.56815,,
	08/09/2022 16:15:45.130,440508,6731.19,6.00,6.00,-0.001059983,2.499973,-0.00264993,0.002026067,0.001981573,0.006636174,0.005742569,6881.088,6730.197,0,97.80392,,
	08/09/2022 23:36:39.792,466963,6470.21,8.00,6.00,-0.001059929,2.499998,-0.00264982,0.001949525,0.001904821,0.006385865,0.005519279,6621.296,6469.312,0,97.70692,,
	08/10/2022 06:39:09.208,492312,6196.43,10.00,6.00,-0.001060033,2.499989,-0.00265007,0.00186692,0.001824252,0.006119766,0.005283602,6340.694,6195.551,0,97.71454,,
	08/10/2022 13:25:06.282,516669,5980.43,12.00,6.00,-0.00105989,2.5,-0.002649725,0.001797211,0.001760548,0.005895224,0.00510211,6103.75,5979.552,0,97.96,,
	08/10/2022 19:58:56.827,540300,5790.37,14.00,6.00,-0.001059929,2.499973,-0.00264979,0.001743166,0.001704607,0.005716925,0.004944596,5920.132,5789.531,0,97.78802,,
	08/11/2022 02:19:00.943,563104,5583.17,16.00,6.00,-0.001059974,2.499983,-0.00264992,0.001681563,0.001643649,0.005516756,0.004769956,5710.892,5582.345,0,97.74532,,
	08/11/2022 08:23:36.891,584980,5348.39,18.00,6.00,-0.001060059,2.499994,-0.00265014,0.001610744,0.001574596,0.005288942,0.004567363,5470.539,5347.568,0,97.75583,,
	08/11/2022 14:14:15.093,606018,5176.74,20.00,6.00,-0.001059876,2.499973,-0.00264966,0.001553765,0.001523935,0.005105194,0.004423305,5276.979,5175.97,0,98.08017,,
	08/11/2022 19:55:25.131,626488,5023.56,22.00,6.00,-0.001059948,2.49999,-0.00264986,0.001510054,0.001478866,0.004961237,0.004295847,5128.556,5022.814,0,97.93459,,
	08/12/2022 01:24:45.859,646249,4837.06,24.00,6.00,-0.001060133,2.499983,-0.00265031,0.001455407,0.001424028,0.004783962,0.00413542,4942.987,4836.339,0,97.84393,,
	08/12/2022 06:40:58.277,665221,4649.38,26.00,6.00,-0.001060061,2.499992,-0.00265014,0.001397073,0.001368809,0.004596239,0.003972819,4744.878,4648.715,0,97.97691,,
	08/12/2022 11:46:12.711,683536,4501.91,28.00,6.00,-0.001059969,2.49999,-0.00264991,0.001349878,0.001325328,0.004443567,0.00384662,4584.628,4501.223,0,98.18136,,
	08/12/2022 16:44:52.247,701455,4415.83,30.00,6.00,-0.00105993,2.499985,-0.00264981,0.001325009,0.001299934,0.004360459,0.003778544,4500.019,4415.164,0,98.10762,,
	08/12/2022 21:35:49.731,718913,4290.27,32.00,6.00,-0.001059921,2.499992,-0.00264979,0.001287075,0.001262944,0.004236226,0.00367206,4371.242,4289.612,0,98.12517,,
	08/13/2022 02:17:31.724,735815,4148.87,34.00,6.00,-0.00105995,2.499979,-0.00264985,0.0012444,0.001221373,0.00409755,0.003549716,4226.282,4148.216,0,98.14954,,
	08/13/2022 06:50:02.075,752165,4017.86,36.00,6.00,-0.001060043,2.499987,-0.00265009,0.001204359,0.001182831,0.003967649,0.003436798,4090.234,4017.262,0,98.21248,,
	08/13/2022 11:13:36.462,767980,3894.98,38.00,6.00,-0.001059974,2.499994,-0.00264993,0.001164731,0.001146613,0.003839637,0.003330593,3955.686,3894.391,0,98.44449,,
	08/13/2022 15:32:08.544,783492,3823.16,40.00,6.00,-0.001059983,2.499985,-0.00264994,0.001145532,0.001125447,0.003775141,0.003271905,3890.438,3822.587,0,98.24664,,
	08/13/2022 19:43:06.887,798550,3702.47,42.00,6.00,-0.001059925,2.499998,-0.00264981,0.001108975,0.001089976,0.003656452,0.003167053,3766.24,3701.926,0,98.28674,,
	08/13/2022 23:47:25.969,813209,3612.4,44.00,6.00,-0.001059957,2.5,-0.00264989,0.001081306,0.001063425,0.003566032,0.003090158,3672.333,3611.84,0,98.34631,,
	08/14/2022 03:45:01.619,827465,3509.6,46.00,6.00,-0.00105996,2.499992,-0.00264989,0.001050239,0.001033193,0.003464766,0.003001383,3566.808,3509.072,0,98.37691,,
	08/14/2022 07:36:12.387,841336,3418.38,48.00,6.00,-0.001059946,2.499989,-0.00264985,0.001022306,0.001006353,0.003373761,0.002922742,3471.915,3417.863,0,98.43947,,
	08/14/2022 11:21:47.876,854871,3343.72,50.00,6.00,-0.001059869,2.499996,-0.00264967,0.0009985809,0.0009843374,0.003296309,0.002859201,3391.398,3343.24,0,98.57362,,
	08/14/2022 15:02:28.198,868111,3254.15,52.00,6.00,-0.001060002,2.499983,-0.00264999,0.0009744164,0.0009580171,0.003216757,0.002781749,3309.344,3253.61,0,98.31701,,
	08/14/2022 18:36:39.379,880963,3172.23,54.00,6.00,-0.001060035,2.5,-0.00265009,0.0009469395,0.000933894,0.003127715,0.002710799,3216.162,3171.777,0,98.62235,,
	08/14/2022 22:07:22.029,893605,3128.59,56.00,6.00,-0.001059862,2.499981,-0.00264963,0.000933886,0.0009210111,0.003084166,0.002675376,3171.665,3128.073,0,98.62136,,
	08/15/2022 01:34:23.794,906027,3068.03,58.00,6.00,-0.001059948,2.499998,-0.00264987,0.0009159303,0.0009031803,0.003024885,0.002623779,3110.783,3067.569,0,98.60797,,
	08/15/2022 04:56:48.166,918171,2995.86,60.00,6.00,-0.001059996,2.499983,-0.00264997,0.0008950254,0.0008819493,0.002956362,0.002561551,3039.741,2995.428,0,98.53902,,
	08/15/2022 08:14:49.292,930052,2933.01,62.00,6.00,-0.001059946,2.499994,-0.00264986,0.0008759936,0.0008634629,0.002893897,0.002507595,2974.99,2932.55,0,98.56953,,
	08/15/2022 11:28:33.155,941676,2873.5,64.00,6.00,-0.001059879,2.49999,-0.00264969,0.0008575801,0.0008459378,0.002833633,0.002456597,2912.522,2873.067,0,98.64242,,
	08/15/2022 14:38:29.785,953073,2810.49,66.00,6.00,-0.001059991,2.499996,-0.00264997,0.0008396221,0.0008273733,0.002774488,0.002402118,2851.555,2810.058,0,98.54115,,
	08/15/2022 17:43:34.329,964178,2740.92,68.00,6.00,-0.001059939,2.499992,-0.00264984,0.0008179242,0.0008068709,0.002703928,0.002341326,2777.948,2740.49,0,98.64862,,
	08/15/2022 20:44:55.488,975059,2691.77,70.00,6.00,-0.001059962,2.5,-0.002649905,0.0008022961,0.0007923947,0.00265272,0.00229926,2724.832,2691.347,0,98.76587,,
	08/15/2022 23:43:54.777,985798,2659.77,72.00,6.00,-0.001059891,2.499989,-0.00264972,0.0007929046,0.0007829625,0.002621244,0.002272976,2692.923,2659.354,0,98.74612,,
	08/16/2022 02:40:23.265,996386,2619.42,74.00,6.00,-0.001059858,2.499994,-0.00264964,0.000781272,0.0007710944,0.002582656,0.002238811,2653.294,2619.004,0,98.6973,,
	08/16/2022 05:33:54.162,1.0068e+06,2574.46,76.00,6.00,-0.001059853,2.499992,-0.00264962,0.0007678193,0.0007578725,0.002538281,0.002200318,2607.663,2574.075,0,98.70454,,
	08/16/2022 08:24:11.912,1.01702e+06,2524.03,78.00,6.00,-0.001059936,2.499994,-0.00264983,0.0007533219,0.0007430137,0.002490576,0.00215672,2558.444,2523.653,0,98.63163,,
	08/16/2022 11:09:58.571,1.02696e+06,2451.54,80.00,6.00,-0.001059987,2.499968,-0.00264993,0.0007315605,0.0007217067,0.002419872,0.002092583,2484.656,2451.171,0,98.65304,,
	08/16/2022 13:51:37.654,1.03666e+06,2396.23,82.00,6.00,-0.001060006,2.499996,-0.00265001,0.0007144556,0.0007054303,0.002364229,0.00204441,2426.515,2395.846,0,98.73677,,
	08/16/2022 16:29:51.262,1.04615e+06,2347.29,84.00,6.00,-0.00105996,2.499962,-0.00264986,0.0006992632,0.0006910114,0.002314606,0.002001744,2374.878,2346.938,0,98.81993,,
	08/16/2022 19:05:29.541,1.05549e+06,2315.31,86.00,6.00,-0.001059924,2.499971,-0.00264978,0.0006886487,0.0006815472,0.002279643,0.001974478,2338.754,2314.931,0,98.96878,,
	08/16/2022 21:39:43.531,1.06475e+06,2297.56,88.00,6.00,-0.001059997,2.499994,-0.00264999,0.0006834339,0.0006763486,0.00226192,0.001960492,2321.014,2297.187,0,98.96329,,
	08/17/2022 00:12:30.776,1.07391e+06,2271.43,90.00,6.00,-0.001060153,2.499983,-0.00265036,0.0006762669,0.0006686651,0.002237855,0.001938593,2296.674,2271.103,0,98.87592,,
	08/17/2022 02:43:15.375,1.08296e+06,2239.56,92.00,6.00,-0.001059941,2.499994,-0.00264985,0.000666981,0.000659291,0.002207119,0.001911427,2265.104,2239.236,0,98.84704,,
	08/17/2022 05:11:48.045,1.09187e+06,2207.93,94.00,6.00,-0.001059895,2.49999,-0.00264973,0.0006571282,0.0006499601,0.002174558,0.001884253,2231.748,2207.595,0,98.90916,,
	08/17/2022 07:38:09.183,1.10065e+06,2173.41,96.00,6.00,-0.001059877,2.49999,-0.00264968,0.0006474521,0.0006397979,0.002142669,0.001854466,2198.842,2173.065,0,98.8178,,
	08/17/2022 10:01:38.678,1.10926e+06,2129.18,98.00,6.00,-0.001059842,2.499966,-0.00264957,0.0006336748,0.0006267885,0.002097626,0.001815757,2152.074,2128.877,0,98.91326,,
	08/17/2022 12:22:44.113,1.11773e+06,2096.49,100.00,6.00,-0.001059828,2.499992,-0.00264956,0.0006240635,0.0006171616,0.00206592,0.001787616,2119.487,2096.174,0,98.89404,,
	08/17/2022 14:41:32.342,1.12606e+06,2061.89,102.00,6.00,-0.001059921,2.499994,-0.0026498,0.0006137546,0.0006069633,0.002032089,0.001757711,2084.398,2061.566,0,98.89348,,
	08/17/2022 16:57:25.703,1.13421e+06,2011.77,104.00,6.00,-0.001059886,2.499989,-0.0026497,0.0005996726,0.0005922233,0.0019861,0.001713469,2036.69,2011.454,0,98.75777,,
	08/17/2022 19:09:41.008,1.14214e+06,1960.13,106.00,6.00,-0.001059964,2.499987,-0.0026499,0.0005835544,0.0005770747,0.00193379,0.001668064,1981.933,1959.846,0,98.88961,,
	08/17/2022 21:19:08.967,1.14991e+06,1923.11,108.00,6.00,-0.001060016,2.499996,-0.00265004,0.0005720526,0.0005661604,0.001896271,0.001635741,1942.895,1922.833,0,98.96999,,
	08/17/2022 23:26:40.358,1.15756e+06,1896.63,110.00,6.00,-0.001060035,2.499992,-0.00265008,0.0005640627,0.0005583705,0.001869892,0.001613025,1915.704,1896.337,0,98.99087,,
	08/18/2022 01:32:23.445,1.16511e+06,1871.22,112.00,6.00,-0.00105988,2.499998,-0.0026497,0.0005559272,0.0005508451,0.00184306,0.001591072,1888.131,1870.931,0,99.08583,,
	08/18/2022 03:36:25.987,1.17255e+06,1845.75,114.00,6.00,-0.001059985,2.499939,-0.0026499,0.0005485626,0.0005433837,0.001818731,0.001569319,1862.979,1845.507,0,99.05592,,
	08/18/2022 05:38:52.748,1.1799e+06,1821.39,116.00,6.00,-0.001059915,2.499979,-0.00264977,0.0005414215,0.0005362204,0.001795105,0.001548295,1838.886,1821.121,0,99.03937,,
	08/18/2022 07:39:27.213,1.18713e+06,1793.45,118.00,6.00,-0.001059991,2.499973,-0.00264995,0.0005326818,0.0005279896,0.001766365,0.001524087,1809.151,1793.189,0,99.11914,,
	08/18/2022 09:38:25.455,1.19427e+06,1771.31,120.00,6.00,-0.001059997,2.49999,-0.00264998,0.0005260409,0.0005214816,0.001744463,0.001505105,1786.527,1771.085,0,99.13329,,
	08/18/2022 11:36:00.623,1.20132e+06,1749.73,122.00,6.00,-0.00106001,2.499998,-0.00265002,0.0005201235,0.0005150845,0.001724868,0.001486543,1766.527,1749.446,0,99.0312,,
	08/18/2022 13:31:59.092,1.20828e+06,1726.37,124.00,6.00,-0.001059996,2.499996,-0.00264999,0.0005126991,0.0005082382,0.001700402,0.001466345,1741.218,1726.13,0,99.12993,,
	08/18/2022 15:26:33.371,1.21516e+06,1705.58,126.00,6.00,-0.001059874,2.499962,-0.00264964,0.0005064787,0.0005021198,0.001679886,0.001448493,1720.176,1705.313,0,99.13937,,
	08/18/2022 17:19:47.854,1.22195e+06,1686.84,128.00,6.00,-0.00105993,2.499994,-0.00264982,0.0005008143,0.0004965585,0.001661164,0.001432258,1700.946,1686.565,0,99.15023,,
	08/18/2022 19:11:42.617,1.22867e+06,1666.56,130.00,6.00,-0.001059991,2.499996,-0.00264997,0.0004948843,0.0004906241,0.001641466,0.001414933,1680.714,1666.321,0,99.13914,,
	08/18/2022 21:02:14.621,1.2353e+06,1645.93,132.00,6.00,-0.0010601,2.499981,-0.00265023,0.000488747,0.0004845991,0.001621307,0.001397237,1659.988,1645.718,0,99.15132,,
	08/18/2022 22:51:23.939,1.24185e+06,1624.42,134.00,6.00,-0.001059971,2.499987,-0.00264991,0.0004825584,0.0004782202,0.001600847,0.001378494,1639.026,1624.148,0,99.10101,,
	08/19/2022 00:39:10.358,1.24831e+06,1604.38,136.00,6.00,-0.001060094,2.49999,-0.00265022,0.0004765051,0.0004723599,0.001580911,0.001361365,1618.358,1604.163,0,99.1301,,
	08/19/2022 02:25:38.887,1.2547e+06,1585.91,138.00,6.00,-0.001060144,2.499952,-0.00265031,0.000470775,0.0004669374,0.001561963,0.001345505,1598.903,1585.697,0,99.18484,,
	08/19/2022 04:10:56.919,1.26102e+06,1568.07,140.00,6.00,-0.001060035,2.5,-0.00265009,0.0004657356,0.0004616888,0.001545358,0.001330105,1581.838,1567.855,0,99.1311,,
	08/19/2022 05:55:03.771,1.26727e+06,1551.5,142.00,6.00,-0.001060059,2.499966,-0.00265011,0.0004604012,0.0004567851,0.001527716,0.001315777,1563.746,1551.266,0,99.21456,,
	08/19/2022 07:38:02.917,1.27345e+06,1533.55,144.00,6.00,-0.001060069,2.499992,-0.00265016,0.0004553417,0.0004514908,0.001510995,0.001300287,1546.526,1533.298,0,99.15428,,
	08/19/2022 09:19:58.471,1.27956e+06,1518.38,146.00,6.00,-0.001060125,2.499989,-0.0026503,0.000450896,0.0004470483,0.001496305,0.001287396,1531.36,1518.163,0,99.14666,,
	08/19/2022 11:00:52.145,1.28562e+06,1504.06,148.00,6.00,-0.001060011,2.499935,-0.00264996,0.0004462355,0.0004428272,0.001480919,0.001275021,1515.541,1503.86,0,99.23621,,
	08/19/2022 12:40:46.407,1.29161e+06,1488.56,150.00,6.00,-0.001059968,2.499969,-0.00264989,0.0004418356,0.0004382189,0.001466283,0.00126165,1500.634,1488.349,0,99.18144,,
	08/19/2022 14:19:46.297,1.29755e+06,1475.37,152.00,6.00,-0.001059985,2.499989,-0.00264995,0.0004377975,0.0004343253,0.001452899,0.001250259,1486.871,1475.154,0,99.20689,,
	08/19/2022 15:57:43.682,1.30343e+06,1459.49,154.00,6.00,-0.00105996,2.499987,-0.00264989,0.0004331685,0.0004296726,0.001437602,0.001236688,1471.096,1459.269,0,99.19294,,
	08/19/2022 17:34:39.972,1.30924e+06,1444.93,156.00,6.00,-0.001059916,2.499975,-0.00264976,0.0004286165,0.0004253744,0.001422536,0.001224083,1455.723,1444.713,0,99.24357,,
	08/19/2022 19:10:36.932,1.315e+06,1430.38,158.00,6.00,-0.001060061,2.49996,-0.00265011,0.0004243097,0.0004210884,0.001408268,0.001211594,1441.114,1430.149,0,99.24081,,
	08/19/2022 20:45:38.432,1.3207e+06,1416.11,160.00,6.00,-0.001059989,2.499989,-0.00264996,0.0004203245,0.0004169301,0.001395134,0.001199441,1427.549,1415.926,0,99.19243,,
	08/19/2022 22:19:40.762,1.32634e+06,1401.15,162.00,6.00,-0.001059968,2.499998,-0.00264992,0.0004157659,0.0004124988,0.001380021,0.001186487,1412.043,1400.929,0,99.21419,,
	08/19/2022 23:52:46.521,1.33193e+06,1387.98,164.00,6.00,-0.001059969,2.499998,-0.00264992,0.0004115746,0.0004086122,0.001366131,0.001175101,1397.853,1387.761,0,99.28024,,
	08/20/2022 01:24:59.225,1.33746e+06,1374.04,166.00,6.00,-0.001060041,2.499994,-0.0026501,0.0004078594,0.0004045114,0.0013539,0.001163196,1385.219,1373.817,0,99.17914,,
	08/20/2022 02:56:19.566,1.34294e+06,1361.47,168.00,6.00,-0.001059994,2.499981,-0.00264996,0.0004041799,0.000400812,0.001341689,0.001152368,1372.693,1361.264,0,99.16673,,
	08/20/2022 04:26:46.411,1.34837e+06,1348.81,170.00,6.00,-0.001060043,2.499985,-0.00265009,0.0003998173,0.0003970978,0.001327226,0.001141461,1357.871,1348.62,0,99.31981,,
	08/20/2022 05:56:26.239,1.35375e+06,1337.3,172.00,6.00,-0.001060025,2.499981,-0.00265004,0.0003963734,0.0003937226,0.001315846,0.001131645,1346.176,1337.121,0,99.33121,,
	08/20/2022 07:25:19.209,1.35908e+06,1325.54,174.00,6.00,-0.001060027,2.499977,-0.00265004,0.000393101,0.0003902451,0.00130502,0.00112146,1335.037,1325.351,0,99.2735,,
	08/20/2022 08:53:24.288,1.36437e+06,1313.21,176.00,6.00,-0.001060082,2.5,-0.002650205,0.0003893885,0.0003866157,0.001292669,0.001110937,1322.427,1313.014,0,99.28793,,
	08/20/2022 10:20:44.898,1.36961e+06,1302.86,178.00,6.00,-0.001060033,2.499987,-0.00265007,0.0003862677,0.0003835817,0.001282407,0.001102072,1311.86,1302.7,0,99.30465,,
	08/20/2022 11:47:20.374,1.3748e+06,1291.66,180.00,6.00,-0.001060058,2.499979,-0.00265012,0.0003829699,0.0003802936,0.001271448,0.00109238,1300.682,1291.507,0,99.30118,,
	08/20/2022 13:13:12.656,1.37996e+06,1280.01,182.00,6.00,-0.00106008,2.5,-0.0026502,0.0003797812,0.0003768473,0.001260863,0.001082367,1289.922,1279.797,0,99.22747,,
	08/20/2022 14:38:16.217,1.38506e+06,1268.54,184.00,6.00,-0.001060094,2.499979,-0.00265021,0.0003759029,0.0003734898,0.001248038,0.001072573,1276.705,1268.364,0,99.35805,,
	08/20/2022 16:02:36.151,1.39012e+06,1257.54,186.00,6.00,-0.001060135,2.499983,-0.00265032,0.0003728227,0.000370238,0.001237824,0.001063083,1266.182,1257.362,0,99.30672,,
	08/20/2022 17:26:17.894,1.39514e+06,1247.95,188.00,6.00,-0.001060133,2.5,-0.00265033,0.0003702782,0.000367429,0.00122945,0.001054958,1257.557,1247.783,0,99.23053,,
	08/20/2022 18:49:18.123,1.40012e+06,1238.1,190.00,6.00,-0.001060147,2.499983,-0.00265035,0.0003667646,0.0003645308,0.00121775,0.001046386,1245.622,1237.945,0,99.39094,,
	08/20/2022 20:11:35.835,1.40506e+06,1227.69,192.00,6.00,-0.001060041,2.499929,-0.00265003,0.0003639124,0.000361457,0.001208385,0.001037525,1235.987,1227.521,0,99.32529,,
	08/20/2022 21:33:13.021,1.40996e+06,1217.49,194.00,6.00,-0.001060019,2.5,-0.00265005,0.0003608612,0.0003584533,0.001198209,0.001028714,1225.609,1217.337,0,99.33271,,
	08/20/2022 22:54:13.017,1.41482e+06,1208.71,196.00,6.00,-0.001059997,2.5,-0.00264999,0.0003582251,0.0003558456,0.00118949,0.001021119,1216.626,1208.532,0,99.33577,,
	08/21/2022 00:14:35.119,1.41964e+06,1199.13,198.00,6.00,-0.001060035,2.5,-0.00265009,0.000355374,0.0003530233,0.00118004,0.001012905,1206.936,1198.945,0,99.33852,,
	08/21/2022 01:34:17.166,1.42442e+06,1188.21,200.00,6.00,-0.001060072,2.499994,-0.00265017,0.0003524248,0.0003498227,0.001170247,0.001003559,1196.901,1188.047,0,99.26166,,
	08/21/2022 02:53:18.212,1.42916e+06,1178.94,202.00,6.00,-0.001060073,2.499964,-0.00265014,0.0003493608,0.0003471074,0.001160115,0.0009955688,1186.515,1178.8,0,99.355,,
	08/21/2022 04:11:39.003,1.43386e+06,1168.83,204.00,6.00,-0.001060054,2.5,-0.002650135,0.0003464414,0.0003441367,0.001150452,0.0009869577,1176.571,1168.691,0,99.33475,,
	08/21/2022 05:29:21.318,1.43852e+06,1159.1,206.00,6.00,-0.001060069,2.499952,-0.00265012,0.0003435364,0.0003412679,0.001140806,0.0009786,1166.733,1158.956,0,99.33968,,
	08/21/2022 06:46:27.100,1.44315e+06,1150.43,208.00,6.00,-0.001060151,2.499996,-0.00265037,0.0003409366,0.0003387118,0.001132221,0.0009711768,1157.934,1150.27,0,99.34745,,
	08/21/2022 08:02:58.490,1.44774e+06,1141.55,210.00,6.00,-0.001060064,2.499968,-0.00265013,0.0003384692,0.0003360677,0.001124038,0.0009634947,1149.582,1141.347,0,99.29048,,
	08/21/2022 09:18:53.545,1.4523e+06,1132.79,212.00,6.00,-0.001060013,2.499958,-0.00264999,0.0003357144,0.0003335127,0.001114884,0.0009560348,1140.242,1132.623,0,99.34417,,
	08/21/2022 10:34:17.800,1.45682e+06,1125.52,214.00,6.00,-0.001059994,2.499983,-0.00264997,0.000333488,0.0003313611,0.001107498,0.0009497878,1132.681,1125.346,0,99.36223,,
	08/21/2022 11:49:12.817,1.46132e+06,1118.68,216.00,6.00,-0.001059966,2.499996,-0.00264991,0.0003313265,0.0003293435,0.001100341,0.0009438736,1125.323,1118.513,0,99.40151,,
	08/21/2022 13:03:40.166,1.46578e+06,1110.96,218.00,6.00,-0.001059992,2.499996,-0.00264998,0.0003292259,0.0003270722,0.001093325,0.0009373411,1118.162,1110.789,0,99.34583,,
	08/21/2022 14:17:35.282,1.47022e+06,1103.05,220.00,6.00,-0.001060036,2.499992,-0.00265008,0.0003267697,0.0003247473,0.001085175,0.0009305754,1109.816,1102.886,0,99.3811,,
	08/21/2022 15:30:57.870,1.47462e+06,1094.8,222.00,6.00,-0.001060052,2.499998,-0.00265013,0.000324391,0.0003223104,0.001077307,0.0009235013,1101.685,1094.633,0,99.3586,,
	08/21/2022 16:43:47.639,1.47899e+06,1086.88,224.00,6.00,-0.00106002,2.499994,-0.00265004,0.0003221368,0.0003199709,0.001069832,0.000916671,1094.044,1086.711,0,99.32765,,
	08/21/2022 17:56:05.785,1.48333e+06,1079.49,226.00,6.00,-0.001060041,2.499968,-0.00265007,0.0003197485,0.0003178027,0.001061918,0.0009103419,1085.944,1079.345,0,99.39146,,
	08/21/2022 19:07:52.316,1.48764e+06,1071,228.00,6.00,-0.001060001,2.499992,-0.00264999,0.0003172428,0.0003153261,0.0010536,0.0009031087,1077.432,1070.844,0,99.39583,,
	08/21/2022 20:19:09.537,1.49191e+06,1063.66,230.00,6.00,-0.001060105,2.499968,-0.00265023,0.0003151573,0.0003131708,0.001046681,0.0008968399,1070.356,1063.532,0,99.36966,,
	08/21/2022 21:29:56.412,1.49616e+06,1056.85,232.00,6.00,-0.001060033,2.499973,-0.00265005,0.0003130829,0.0003111475,0.00103981,0.000890998,1063.378,1056.712,0,99.38181,,
	08/21/2022 22:40:13.785,1.50038e+06,1048.93,234.00,6.00,-0.001060082,2.499992,-0.0026502,0.0003108348,0.0003088333,0.001032342,0.0008842392,1055.717,1048.78,0,99.35606,,
	08/21/2022 23:50:00.446,1.50456e+06,1041.88,236.00,6.00,-0.001060091,2.499994,-0.00265022,0.0003085308,0.0003067632,0.001024696,0.0008782063,1047.86,1041.733,0,99.42709,,
	08/22/2022 00:59:22.084,1.50873e+06,1035.49,238.00,6.00,-0.00106011,2.499992,-0.00265027,0.000306761,0.0003048657,0.001018823,0.0008726767,1041.931,1035.334,0,99.38219,,
	08/22/2022 02:08:15.843,1.51286e+06,1028.49,240.00,6.00,-0.001060044,2.499979,-0.00265009,0.0003046804,0.0003028176,0.001011917,0.0008667477,1034.845,1028.346,0,99.38859,,
	08/22/2022 03:16:42.803,1.51697e+06,1021.42,242.00,6.00,-0.001060128,2.499983,-0.0026503,0.000302719,0.0003007347,0.001005389,0.0008606754,1028.147,1021.253,0,99.34449,,
	08/22/2022 04:24:42.488,1.52105e+06,1015.19,244.00,6.00,-0.0010601,2.499983,-0.00265023,0.0003006425,0.0002988921,0.0009985189,0.0008553258,1021.154,1015.043,0,99.41777,,
	08/22/2022 05:32:15.590,1.5251e+06,1008.66,246.00,6.00,-0.001060069,2.499983,-0.00265015,0.0002986166,0.0002969791,0.0009917677,0.0008497559,1014.205,1008.529,0,99.45164,,
	08/22/2022 06:39:24.636,1.52913e+06,1002.44,248.00,6.00,-0.001060122,2.499985,-0.00265029,0.0002969283,0.0002951466,0.0009861798,0.0008444492,1008.496,1002.308,0,99.39996,,
	08/22/2022 07:46:08.554,1.53313e+06,996.1572,250.00,6.00,-0.001060043,2.499964,-0.00265007,0.0002950992,0.0002933021,0.0009801222,0.000839093,1002.258,996.0242,0,99.39101,,
	08/22/2022 08:52:27.238,1.53711e+06,990.5420,252.00,6.00,-0.001060163,2.499994,-0.0026504,0.0002933513,0.0002916517,0.0009743233,0.0008343325,996.2835,990.4186,0,99.42063,,
	08/22/2022 09:58:25.093,1.54107e+06,984.8858,254.00,6.00,-0.001060049,2.499983,-0.0026501,0.0002916396,0.0002899621,0.0009686322,0.0008294182,990.532,984.7471,0,99.4248,,
	08/22/2022 11:03:59.165,1.545e+06,979.7466,256.00,6.00,-0.001059994,2.499981,-0.00264996,0.0002900585,0.0002884416,0.0009634035,0.000825032,985.1015,979.5973,0,99.44257,,
	08/22/2022 12:09:12.538,1.54892e+06,974.5196,258.00,6.00,-0.00106002,2.499983,-0.00265003,0.0002884169,0.0002869126,0.0009579139,0.0008205583,979.568,974.3959,0,99.47842,,
	08/22/2022 13:14:07.611,1.55281e+06,969.3262,260.00,6.00,-0.001060006,2.499989,-0.00265,0.0002870939,0.0002853848,0.0009535225,0.000816185,975.0154,969.2074,0,99.40466,,
	08/22/2022 14:18:38.275,1.55668e+06,963.2900,262.00,6.00,-0.00105998,2.499973,-0.00264992,0.0002851615,0.0002835943,0.0009470969,0.0008109414,968.4366,963.1545,0,99.45043,,
	08/22/2022 15:22:49.206,1.56053e+06,958.1569,264.00,6.00,-0.001059977,2.499996,-0.00264994,0.0002838835,0.0002820689,0.0009428589,0.0008065701,964.1043,958.024,0,99.36079,,
	08/22/2022 16:26:34.560,1.56436e+06,952.0014,266.00,6.00,-0.001059975,2.499985,-0.00264992,0.0002819422,0.0002802637,0.0009364015,0.0008013097,957.5687,951.8483,0,99.40466,,
	08/22/2022 17:29:55.217,1.56816e+06,945.2679,268.00,6.00,-0.001060094,2.499973,-0.00265021,0.0002801088,0.0002783049,0.0009303439,0.0007956116,951.3431,945.1253,0,99.356,,
	08/22/2022 18:32:51.409,1.57193e+06,939.7389,270.00,6.00,-0.001059978,2.499996,-0.00264994,0.0002783465,0.0002766612,0.0009244801,0.0007908382,945.3233,939.6046,0,99.39455,,
	08/22/2022 19:35:25.279,1.57569e+06,934.0902,272.00,6.00,-0.001060036,2.499981,-0.00265007,0.0002767149,0.0002749878,0.0009190649,0.0007860229,939.7717,933.9384,0,99.37585,,
	08/22/2022 20:37:38.559,1.57942e+06,929.4828,274.00,6.00,-0.001060013,2.499994,-0.00265003,0.0002751548,0.0002736299,0.00091389,0.0007820487,934.5847,929.324,0,99.44579,,
	08/22/2022 21:39:31.228,1.58313e+06,924.0228,276.00,6.00,-0.001060036,2.499994,-0.00265008,0.0002736813,0.0002720458,0.0009089944,0.000777485,929.4945,923.8834,0,99.40241,,
	08/22/2022 22:41:05.454,1.58683e+06,919.6433,278.00,6.00,-0.00106007,2.499998,-0.00265017,0.0002722587,0.0002707463,0.0009042525,0.0007736718,924.6505,919.5008,0,99.44447,,
	08/22/2022 23:42:19.061,1.5905e+06,914.2075,280.00,6.00,-0.001059962,2.499964,-0.00264987,0.0002707298,0.0002691354,0.0008991591,0.0007690361,919.4302,914.0605,0,99.41106,,
	08/23/2022 00:43:14.026,1.59416e+06,909.8976,282.00,6.00,-0.001059934,2.499987,-0.00264982,0.0002692745,0.0002678784,0.0008943364,0.0007653764,914.6166,909.7515,0,99.48151,,
	08/23/2022 01:43:48.040,1.59779e+06,904.6280,284.00,6.00,-0.001060077,2.499985,-0.00265018,0.000267971,0.0002663415,0.0008900432,0.0007609263,910.113,904.4984,0,99.39192,,
	08/23/2022 02:44:03.869,1.60141e+06,899.5089,286.00,6.00,-0.001059994,2.499996,-0.00264998,0.0002664366,0.0002648392,0.0008849486,0.0007565956,904.8954,899.3994,0,99.40043,,
	08/23/2022 03:43:55.871,1.605e+06,894.1421,288.00,6.00,-0.001059977,2.499975,-0.00264992,0.0002647759,0.0002632311,0.0008794328,0.000751923,899.2822,894.0149,0,99.41657,,
	08/23/2022 04:43:28.257,1.60857e+06,888.9685,290.00,6.00,-0.001059982,2.5,-0.002649955,0.0002632848,0.0002617353,0.0008744569,0.0007475709,894.2327,888.8492,0,99.41147,,
	08/23/2022 05:42:41.927,1.61213e+06,884.7567,292.00,6.00,-0.001060078,2.499945,-0.00265014,0.0002620427,0.0002604876,0.000870376,0.000743984,890.0069,884.6343,0,99.40652,,
	08/23/2022 06:41:32.779,1.61566e+06,878.5615,294.00,6.00,-0.001060049,2.49999,-0.00265011,0.0002602209,0.0002586679,0.0008642871,0.0007387062,883.7631,878.4409,0,99.40321,,
	08/23/2022 07:40:03.792,1.61917e+06,874.0036,296.00,6.00,-0.001059966,2.499983,-0.0026499,0.000258781,0.0002573048,0.0008595007,0.0007347159,878.9584,873.857,0,99.42953,,
	08/23/2022 08:38:14.464,1.62266e+06,868.8432,298.00,6.00,-0.00106005,2.499981,-0.0026501,0.0002572877,0.0002558037,0.0008545216,0.0007303962,873.8378,868.7168,0,99.42323,,
	08/23/2022 09:36:10.350,1.62613e+06,865.3586,300.00,6.00,-0.001060025,2.499985,-0.00265005,0.0002562606,0.0002547751,0.0008511262,0.0007274244,870.342,865.2322,0,99.42031,,
	08/23/2022 10:33:46.690,1.62959e+06,860.9332,302.00,6.00,-0.001059918,2.49995,-0.00264974,0.0002547539,0.0002534464,0.0008461249,0.000723569,865.2453,860.8016,0,99.48678,,
	08/23/2022 11:31:07.654,1.63303e+06,856.9259,304.00,6.00,-0.001059969,2.499994,-0.00264992,0.0002536918,0.0002522977,0.0008425977,0.0007202725,861.6282,856.814,0,99.45046,,
	08/23/2022 12:28:14.877,1.63646e+06,853.5883,306.00,6.00,-0.001059988,2.499971,-0.00264994,0.0002527796,0.0002513022,0.000839558,0.0007174063,858.5061,853.4822,0,99.41553,,
	08/23/2022 13:25:03.187,1.63987e+06,848.4360,308.00,6.00,-0.001059953,2.499985,-0.00264987,0.0002512376,0.0002497754,0.0008344477,0.0007129753,853.2876,848.3147,0,99.41801,,
	08/23/2022 14:21:31.345,1.64325e+06,843.3957,310.00,6.00,-0.001059977,2.500002,-0.00264994,0.0002497018,0.0002483112,0.000829323,0.0007087174,848.1142,843.2792,0,99.44311,,
	08/23/2022 15:17:42.519,1.64663e+06,839.5818,312.00,6.00,-0.001059985,2.499998,-0.00264996,0.0002486252,0.0002471838,0.0008257351,0.0007054989,844.4224,839.4738,0,99.42023,,
	08/23/2022 16:13:33.466,1.64998e+06,834.1099,314.00,6.00,-0.001059989,2.499996,-0.00264997,0.0002469475,0.0002455559,0.0008201826,0.0007007517,838.7129,833.9812,0,99.43649,,
	08/23/2022 17:09:06.601,1.65331e+06,830.3706,316.00,6.00,-0.001059948,2.499994,-0.00264986,0.0002456997,0.0002444671,0.0008160209,0.0006976121,834.5318,830.2543,0,99.49837,,
	08/23/2022 18:04:23.787,1.65663e+06,825.5609,318.00,6.00,-0.001060058,2.499998,-0.00265014,0.0002444644,0.0002430689,0.0008119094,0.000693551,830.2835,825.4698,0,99.42916,,
	08/23/2022 18:59:23.101,1.65993e+06,821.1605,320.00,6.00,-0.001059996,2.499987,-0.00264998,0.0002431966,0.000241745,0.000807677,0.0006897349,825.9723,821.0384,0,99.40314,,
	08/23/2022 19:54:05.322,1.66321e+06,817.2287,322.00,6.00,-0.001060041,2.499989,-0.00265009,0.0002418787,0.0002406075,0.0008033176,0.0006864388,821.541,817.1228,0,99.47444,,
	08/23/2022 20:48:31.913,1.66648e+06,813.2512,324.00,6.00,-0.001060078,2.499983,-0.00265018,0.0002407555,0.0002394492,0.0007996018,0.0006830972,817.6812,813.149,0,99.45743,,
	08/23/2022 21:42:40.198,1.66972e+06,808.6951,326.00,6.00,-0.001060027,2.499987,-0.00265005,0.0002393835,0.00023807,0.0007950325,0.0006791097,812.996,808.5504,0,99.4513,,
	08/23/2022 22:36:28.511,1.67295e+06,803.3977,328.00,6.00,-0.001060078,2.499994,-0.00265019,0.0002378716,0.0002365353,0.0007900043,0.0006746785,807.9,803.29,0,99.43822,,
	08/23/2022 23:29:58.461,1.67616e+06,799.2071,330.00,6.00,-0.00106013,2.499981,-0.0026503,0.0002366583,0.0002353103,0.0007859673,0.0006711305,803.7571,799.0902,0,99.4304,,
	08/24/2022 00:23:13.360,1.67936e+06,795.4299,332.00,6.00,-0.001060063,2.499966,-0.00265012,0.0002354965,0.0002341902,0.0007821319,0.000667888,799.834,795.3149,0,99.44527,,
	08/24/2022 01:16:11.699,1.68253e+06,791.3117,334.00,6.00,-0.001060072,2.499998,-0.00265018,0.0002342001,0.0002329782,0.0007778215,0.0006643718,795.4618,791.185,0,99.47829,,
	08/24/2022 02:08:52.609,1.6857e+06,787.3747,336.00,6.00,-0.001059832,2.499996,-0.00264958,0.0002330257,0.0002318271,0.0007739112,0.0006610251,791.4191,787.2737,0,99.48563,,
	08/24/2022 03:01:18.606,1.68884e+06,783.2846,338.00,6.00,-0.001060112,2.499983,-0.00265026,0.0002318003,0.0002306147,0.0007698438,0.0006575481,787.2676,783.1627,0,99.48853,,
	08/24/2022 03:53:29.594,1.69197e+06,779.5707,340.00,6.00,-0.001060052,2.499989,-0.00265012,0.0002308174,0.000229519,0.0007665653,0.0006543927,783.9873,779.4651,0,99.43745,,
	08/24/2022 04:45:24.757,1.69509e+06,775.6601,342.00,6.00,-0.001060124,2.499968,-0.00265028,0.0002296246,0.0002283633,0.0007626103,0.0006510541,779.8761,775.5338,0,99.4507,,
	08/24/2022 05:37:05.467,1.69819e+06,772.0362,344.00,6.00,-0.001060131,2.499985,-0.00265031,0.0002285498,0.0002273093,0.0007590321,0.0006480157,776.2298,771.9284,0,99.45723,,
	08/24/2022 06:28:32.708,1.70128e+06,768.8279,346.00,6.00,-0.001060015,2.499987,-0.00265002,0.0002276035,0.0002263691,0.0007559073,0.0006453097,773.0551,768.7241,0,99.45767,,
	08/24/2022 07:19:45.688,1.70435e+06,765.2529,348.00,6.00,-0.00106007,2.49996,-0.00265013,0.0002264831,0.0002253047,0.0007521631,0.0006422385,769.2426,765.1491,0,99.4797,,
	08/24/2022 08:10:45.607,1.70741e+06,762.0546,350.00,6.00,-0.001060069,2.49999,-0.00265016,0.0002255847,0.0002243577,0.0007491912,0.0006395014,766.1311,761.9446,0,99.45609,,
	08/24/2022 09:01:31.739,1.71045e+06,758.6568,352.00,6.00,-0.001060107,2.5,-0.00265027,0.0002245647,0.0002233747,0.000745807,0.000636635,762.686,758.5552,0,99.47008,,
	08/24/2022 09:52:03.299,1.71349e+06,755.1214,354.00,6.00,-0.001060006,2.499996,-0.00265001,0.0002234832,0.0002223186,0.0007421983,0.0006336156,759.0437,755.0055,0,99.47889,,
	08/24/2022 10:42:22.000,1.71651e+06,752.0413,356.00,6.00,-0.001059902,2.499912,-0.00264966,0.0002225322,0.0002213979,0.0007390449,0.0006309691,755.8141,751.9347,0,99.4903,,
	08/24/2022 11:32:31.832,1.71952e+06,750.1935,358.00,6.00,-0.001060011,2.499977,-0.00265,0.0002218926,0.0002208607,0.0007368934,0.0006294109,753.6293,750.0952,0,99.53497,,
	08/24/2022 12:22:32.442,1.72252e+06,747.6289,360.00,6.00,-0.001059977,2.49999,-0.00264993,0.0002211619,0.0002201101,0.0007344633,0.0006272551,751.1005,747.5312,0,99.52445,,
	08/24/2022 13:12:23.487,1.72551e+06,744.9536,362.00,6.00,-0.001059977,2.499992,-0.00264993,0.0002204949,0.0002193194,0.0007322497,0.0006250041,748.8732,744.8464,0,99.46688,,
	08/24/2022 14:02:01.946,1.72849e+06,741.8700,364.00,6.00,-0.001059964,2.499996,-0.00264991,0.000219562,0.00021841,0.0007291379,0.000622371,745.7407,741.7691,0,99.47532,,
	08/24/2022 14:51:30.470,1.73145e+06,739.4174,366.00,6.00,-0.001059936,2.499989,-0.00264983,0.0002189186,0.0002176738,0.0007269955,0.0006202509,743.5196,739.3168,0,99.43137,,
	08/24/2022 15:40:45.574,1.73441e+06,735.6778,368.00,6.00,-0.001059988,2.5,-0.00264997,0.0002177338,0.0002165822,0.0007230397,0.0006171092,739.4971,735.5807,0,99.47112,,
	08/24/2022 16:29:48.423,1.73735e+06,733.1053,370.00,6.00,-0.001059994,2.499981,-0.00264996,0.0002169529,0.0002158328,0.0007204493,0.0006149569,736.8,733.0235,0,99.48375,,
	08/24/2022 17:18:35.901,1.74028e+06,728.8724,372.00,6.00,-0.001059946,2.499987,-0.00264985,0.0002156618,0.0002145765,0.000716155,0.0006113189,732.4537,728.7521,0,99.49677,,
	08/24/2022 18:07:11.422,1.74319e+06,726.0580,374.00,6.00,-0.001059958,2.499996,-0.00264989,0.0002148902,0.000213748,0.0007136076,0.0006089433,729.8543,725.9395,0,99.46848,,
	08/24/2022 18:55:34.231,1.7461e+06,723.5866,376.00,6.00,-0.001059932,2.49999,-0.00264982,0.0002140624,0.0002130126,0.0007108363,0.0006068351,727.0087,723.4792,0,99.50958,,
	08/24/2022 19:43:46.276,1.74899e+06,720.8485,378.00,6.00,-0.001060057,2.499981,-0.00265012,0.0002132543,0.0002122179,0.000708145,0.0006045249,724.275,720.7402,0,99.514,,
	08/24/2022 20:31:44.592,1.75187e+06,716.5022,380.00,6.00,-0.001060086,2.499998,-0.00265021,0.0002121072,0.0002109552,0.0007043536,0.0006008817,720.3717,716.4152,0,99.45691,,
	08/24/2022 21:19:28.476,1.75473e+06,713.1341,382.00,6.00,-0.001060049,2.499994,-0.00265012,0.000211173,0.0002099546,0.0007012257,0.0005980068,717.225,713.0176,0,99.42301,,
	08/24/2022 22:06:58.555,1.75758e+06,710.0023,384.00,6.00,-0.001060093,2.499992,-0.00265022,0.0002100799,0.0002090326,0.0006975985,0.0005953324,713.5258,709.8929,0,99.50147,,
	08/24/2022 22:54:14.801,1.76042e+06,706.3215,386.00,6.00,-0.001060063,2.499981,-0.00265014,0.0002090883,0.0002079488,0.0006943026,0.0005922366,710.1428,706.2257,0,99.45503,,
	08/24/2022 23:41:18.806,1.76324e+06,703.3418,388.00,6.00,-0.001060049,2.5,-0.00265012,0.0002082229,0.0002070808,0.0006914436,0.0005897277,707.243,703.2351,0,99.45151,,
	08/25/2022 00:28:08.749,1.76605e+06,699.7479,390.00,6.00,-0.001060022,2.5,-0.002650055,0.0002071088,0.0002060145,0.0006877062,0.0005866326,703.414,699.6445,0,99.47166,,
	08/25/2022 01:14:46.618,1.76885e+06,696.7791,392.00,6.00,-0.001060036,2.499989,-0.00265008,0.0002062323,0.0002051428,0.0006848044,0.0005841362,700.4746,696.6733,0,99.4717,,
	08/25/2022 02:01:12.321,1.77164e+06,693.8355,394.00,6.00,-0.001060098,2.499998,-0.00265024,0.0002053318,0.0002042867,0.0006817904,0.0005816674,697.4024,693.7312,0,99.491,,
	08/25/2022 02:47:26.807,1.77441e+06,691.0039,396.00,6.00,-0.001060054,2.499996,-0.00265013,0.0002045241,0.0002034388,0.0006791222,0.0005792341,694.6515,690.8963,0,99.46934,,
	08/25/2022 03:33:29.791,1.77717e+06,688.1067,398.00,6.00,-0.001060145,2.499983,-0.00265034,0.0002036541,0.0002026064,0.0006762227,0.0005768442,691.6975,688.0217,0,99.48554,,
	08/25/2022 04:19:21.895,1.77993e+06,685.5616,400.00,6.00,-0.001059999,2.499998,-0.00265,0.0002028835,0.0002018295,0.0006736735,0.0005746309,689.0415,685.4444,0,99.48047,,
	08/25/2022 05:05:03.904,1.78267e+06,682.8577,402.00,6.00,-0.001060098,2.499994,-0.00265024,0.0002020992,0.0002010543,0.0006710527,0.0005723771,686.4191,682.7524,0,99.48296,,
	08/25/2022 05:50:34.254,1.7854e+06,680.0288,404.00,6.00,-0.001060068,2.499968,-0.00265014,0.0002012832,0.000200216,0.0006683385,0.0005699717,683.605,679.9363,0,99.4698,,
	08/25/2022 06:35:55.236,1.78812e+06,678.1943,406.00,6.00,-0.001060059,2.499998,-0.00265015,0.0002006899,0.0001996788,0.0006663976,0.0005684291,681.6613,678.0892,0,99.4962,,
	08/25/2022 07:21:06.097,1.79083e+06,675.3414,408.00,6.00,-0.001060096,2.499968,-0.00265021,0.0001998459,0.0001988273,0.0006635671,0.0005659613,678.7206,675.2366,0,99.49032,,
	08/25/2022 08:06:06.941,1.79353e+06,672.9104,410.00,6.00,-0.001060016,2.499985,-0.00265002,0.0001991245,0.0001981073,0.0006611713,0.0005639096,676.3259,672.8099,0,99.48915,,
	08/25/2022 08:50:58.801,1.79622e+06,670.4641,412.00,6.00,-0.001060077,2.499992,-0.00265018,0.0001984971,0.0001974027,0.0006590824,0.0005618929,674.1842,670.3784,0,99.44865,,
	08/25/2022 09:35:42.429,1.79891e+06,668.7124,414.00,6.00,-0.001060005,2.499996,-0.00265001,0.000197797,0.0001968625,0.000656747,0.0005603272,671.7699,668.6073,0,99.52754,,
	08/25/2022 10:20:16.717,1.80158e+06,666.1552,416.00,6.00,-0.001060119,2.499996,-0.00265029,0.0001970953,0.0001961357,0.0006544186,0.0005582374,669.4121,666.0733,0,99.51315,,
	08/25/2022 11:04:42.411,1.80425e+06,664.0972,418.00,6.00,-0.001059966,2.499985,-0.0026499,0.0001965848,0.0001954985,0.0006527108,0.0005563904,667.6163,663.9761,0,99.4474,,
	08/25/2022 11:49:00.134,1.8069e+06,662.5156,420.00,6.00,-0.001059943,2.499989,-0.00264985,0.0001959905,0.0001950309,0.0006507364,0.0005550666,665.6078,662.3947,0,99.51041,,
	08/25/2022 12:33:22.795,1.80957e+06,664.5668,422.00,6.00,-0.001059885,2.499998,-0.00264971,0.000196876,0.0001956277,0.0006536657,0.0005568026,668.586,664.4479,0,99.36594,,
	08/25/2022 13:17:33.452,1.81222e+06,659.8661,424.00,6.00,-0.001059938,2.499981,-0.00264982,0.0001952743,0.0001942434,0.0006483538,0.0005527815,663.1329,659.7431,0,99.47205,,
	08/25/2022 14:01:30.874,1.81485e+06,657.0597,426.00,6.00,-0.001059879,2.499983,-0.00264968,0.000194388,0.0001934128,0.0006454073,0.0005503965,660.1221,656.9396,0,99.4983,,
	08/25/2022 14:45:20.567,1.81748e+06,655.6166,428.00,6.00,-0.001059958,2.499996,-0.00264989,0.0001938328,0.0001929762,0.0006435517,0.0005491395,658.2406,655.4545,0,99.55803,,
	08/25/2022 15:29:04.998,1.82011e+06,653.7231,430.00,6.00,-0.001059888,2.5,-0.00264972,0.0001934777,0.000192439,0.0006423706,0.0005476162,657.0477,653.6315,0,99.46318,,
	08/25/2022 16:12:37.637,1.82272e+06,650.5622,432.00,6.00,-0.001059941,2.499968,-0.00264982,0.0001925288,0.0001915102,0.0006392083,0.0005449454,653.8312,650.4649,0,99.47096,,
	08/25/2022 16:55:57.346,1.82532e+06,647.4430,434.00,6.00,-0.001059922,2.499994,-0.0026498,0.0001916163,0.0001905816,0.0006361728,0.0005422585,650.7485,647.3121,0,99.46,,
	08/25/2022 17:39:04.263,1.82791e+06,644.2085,436.00,6.00,-0.001059902,2.499994,-0.00264975,0.0001906505,0.0001896311,0.0006329677,0.0005395222,647.4592,644.0834,0,99.46529,,
	08/25/2022 18:22:03.179,1.83049e+06,642.1617,438.00,6.00,-0.001059893,2.499994,-0.00264973,0.0001901602,0.000189034,0.0006313284,0.0005378252,645.7931,642.0542,0,99.40774,,
	08/25/2022 19:04:49.992,1.83305e+06,639.1596,440.00,6.00,-0.001059941,2.499992,-0.00264984,0.0001892026,0.0001881452,0.0006281317,0.0005352447,642.5433,639.0172,0,99.44112,,
	08/25/2022 19:47:24.996,1.83561e+06,636.3771,442.00,6.00,-0.001059883,2.499996,-0.0026497,0.0001883189,0.0001873244,0.0006251999,0.0005328996,639.5515,636.2245,0,99.47195,,
	08/25/2022 20:29:51.587,1.83815e+06,634.2865,444.00,6.00,-0.001059983,2.499952,-0.00264991,0.0001875695,0.0001867212,0.0006227122,0.0005311472,637.0043,634.1553,0,99.54774,,
	08/25/2022 21:12:07.853,1.84069e+06,631.7911,446.00,6.00,-0.001059968,2.49999,-0.00264991,0.0001869236,0.000185974,0.0006205459,0.0005290098,634.8037,631.6311,0,99.492,,
	08/25/2022 21:54:14.120,1.84322e+06,629.5684,448.00,6.00,-0.001059958,2.499962,-0.00264985,0.000186266,0.0001853344,0.000618366,0.0005271963,632.5803,629.4534,0,99.49986,,
	08/25/2022 22:36:10.337,1.84573e+06,626.6306,450.00,6.00,-0.001059997,2.499949,-0.00264994,0.0001854394,0.0001844778,0.0006156269,0.0005247399,629.7689,626.5349,0,99.48147,,
	08/25/2022 23:17:55.513,1.84824e+06,624.1202,452.00,6.00,-0.001060002,2.499979,-0.00264998,0.0001846812,0.0001837346,0.0006130955,0.0005225854,627.1954,624.0158,0,99.48747,,
	08/25/2022 23:59:32.842,1.85074e+06,622.2991,454.00,6.00,-0.001059929,2.499962,-0.00264978,0.0001841894,0.0001831964,0.0006114534,0.0005210317,625.5378,622.1908,0,99.46088,,
	08/26/2022 00:41:01.012,1.85322e+06,619.7793,456.00,6.00,-0.001060068,2.499998,-0.00265017,0.0001834158,0.000182483,0.0006088821,0.0005190006,622.9686,619.7055,0,99.49146,,
	08/26/2022 01:22:20.295,1.8557e+06,617.5831,458.00,6.00,-0.001060064,2.499994,-0.00265015,0.000182781,0.0001818323,0.0006067696,0.0005171229,620.8088,617.5091,0,99.48099,,
	08/26/2022 02:03:30.336,1.85817e+06,615.1774,460.00,6.00,-0.001060103,2.499983,-0.00265024,0.0001821239,0.0001811287,0.0006045895,0.0005151324,618.5817,615.1007,0,99.45358,,
	08/26/2022 02:44:31.339,1.86063e+06,613.2415,462.00,6.00,-0.001060088,2.5,-0.00265022,0.0001813541,0.0001805587,0.0006020204,0.0005134551,615.955,613.1686,0,99.5614,,
	08/26/2022 03:25:23.932,1.86309e+06,610.8154,464.00,6.00,-0.001060097,2.499973,-0.00265021,0.0001807625,0.0001798453,0.0006000518,0.0005114338,613.9454,610.7471,0,99.49263,,
	08/26/2022 04:06:06.163,1.86553e+06,608.4200,466.00,6.00,-0.001060088,2.499975,-0.00265019,0.0001800083,0.0001791351,0.0005975345,0.0005093786,611.3832,608.3417,0,99.51492,,
	08/26/2022 04:46:38.558,1.86796e+06,606.1289,468.00,6.00,-0.001060078,2.499996,-0.00265019,0.0001793231,0.0001784579,0.0005952635,0.0005074334,609.0538,606.0516,0,99.51749,,
	08/26/2022 05:27:02.857,1.87039e+06,603.9905,470.00,6.00,-0.001060068,2.499992,-0.00265016,0.0001787243,0.0001778362,0.0005932805,0.0005056682,607.0272,603.917,0,99.50304,,
	08/26/2022 06:07:18.774,1.8728e+06,601.8031,472.00,6.00,-0.001060038,2.499983,-0.00265008,0.0001780694,0.00017718,0.0005911122,0.0005037861,604.7783,601.7276,0,99.50052,,
	08/26/2022 06:47:26.280,1.87521e+06,599.8853,474.00,6.00,-0.001060031,2.499989,-0.00265007,0.0001774645,0.0001766165,0.0005890794,0.0005021491,602.7182,599.8078,0,99.52213,,
	08/26/2022 07:27:26.563,1.87761e+06,597.8517,476.00,6.00,-0.001060064,2.499989,-0.00265015,0.0001769153,0.0001760177,0.0005872667,0.0005004585,600.8387,597.7737,0,99.49261,,
	08/26/2022 08:07:19.995,1.88e+06,596.5995,478.00,6.00,-0.001060013,2.499969,-0.00265,0.0001765145,0.0001756484,0.0005859191,0.000499383,599.4678,596.5277,0,99.50935,,
	08/26/2022 08:47:06.183,1.88239e+06,594.3887,480.00,6.00,-0.001060055,2.499989,-0.00265013,0.0001758338,0.0001749918,0.0005836595,0.0004975096,597.1707,594.3071,0,99.52112,,
	08/26/2022 09:26:45.220,1.88477e+06,592.6998,482.00,6.00,-0.001059962,2.499981,-0.00264988,0.0001754273,0.0001744851,0.0005822885,0.0004960431,595.7803,592.621,0,99.46294,,
	08/26/2022 10:06:18.721,1.88714e+06,591.5280,484.00,6.00,-0.001059958,2.499998,-0.00264989,0.0001750324,0.0001741425,0.0005809938,0.0004950988,594.4425,591.4406,0,99.49158,,
	08/26/2022 10:45:45.061,1.88951e+06,589.5941,486.00,6.00,-0.001060041,2.499992,-0.00265009,0.0001744755,0.0001735871,0.0005791198,0.0004934641,592.5948,589.5187,0,99.49084,,
	08/26/2022 11:25:05.717,1.89187e+06,588.7561,488.00,6.00,-0.001059999,2.499996,-0.00264999,0.0001739561,0.0001733371,0.0005774117,0.0004927486,590.8221,588.675,0,99.64411,,
	08/26/2022 12:04:20.186,1.89422e+06,586.5831,490.00,6.00,-0.001059974,2.499977,-0.00264991,0.0001734826,0.0001726921,0.0005758227,0.0004908919,589.1853,586.5135,0,99.54433,,
	08/26/2022 12:43:28.468,1.89657e+06,585.1004,492.00,6.00,-0.001059997,2.499969,-0.00264996,0.0001730911,0.0001722569,0.0005745211,0.000489646,587.847,585.0343,0,99.51807,,
	08/26/2022 13:22:30.959,1.89891e+06,583.7414,494.00,6.00,-0.001059971,2.499996,-0.00264992,0.0001727228,0.000171856,0.0005732991,0.0004885019,586.6135,583.6635,0,99.49815,,
	08/26/2022 14:01:26.236,1.90125e+06,581.9567,496.00,6.00,-0.001059997,2.499983,-0.00264997,0.0001721207,0.0001713298,0.0005712949,0.0004869858,584.5621,581.8842,0,99.54048,,
	08/26/2022 14:40:18.800,1.90358e+06,581.5914,498.00,6.00,-0.001060006,2.499994,-0.00265001,0.0001720224,0.0001712225,0.0005709692,0.0004866918,584.2184,581.5231,0,99.535,,
	08/26/2022 15:19:05.061,1.90591e+06,579.5148,500.00,6.00,-0.001059897,2.499987,-0.00264973,0.000171473,0.0001705958,0.000569133,0.0004848884,582.3219,579.4328,0,99.48846,,
	08/26/2022 15:57:44.115,1.90823e+06,578.0700,502.00,6.00,-0.001059867,2.5,-0.00264967,0.0001709764,0.0001701744,0.0005674867,0.0004836859,580.6692,577.9993,0,99.53093,,
	08/26/2022 16:17:01.424,1.90938e+06,577.1473,503.00,6.00,-0.001059948,2.499998,-0.00264987,0.0001707968,0.0001699069,0.0005668911,0.0004829258,580.0338,577.082,0,99.47899,,