File: Cell-test-data/SiMP-LFP-SS1/JB2_SiMP-LFP-SS1_Channel_72_StatisticByCycle.CSV
Date_Time                    ,Test Time (s),Step Time (s),Cycle Index,Step Index,Current (A),Voltage (V),Power (W),Charge Capacity (Ah),Discharge Capacity (Ah),Charge Energy (Wh),Discharge Energy (Wh),Charge Time (s),Discharge Time (s),V_Max_On_Cycle (V),Coulombic Efficiency (%),mAh/g
	08/06/2022 13:05:05.031,169868,58195.7,1,3,-0.0001590149,2.499973,-0.000397533,0.003023799,0.002569857,0.0100739,0.007615788,68462.13,58186.91,0,84.9877,,
	08/09/2022 04:34:00.320,398404,55661.4,3,3,-0.0001589879,2.499987,-0.000397468,0.002538704,0.00245808,0.008204971,0.007276135,57478.89,55652.98,0,96.8242,,
	08/09/2022 12:28:51.770,426895,6834.93,5,6,-0.00106001,2.499987,-0.00265001,0.002056271,0.002012161,0.006739928,0.00582803,6983.798,6833.966,0,97.85489,,
	08/09/2022 19:58:27.309,453870,6606.02,7,6,-0.00106001,2.499996,-0.00265002,0.001988919,0.001944752,0.006513946,0.005635872,6755.079,6605.044,0,97.77935,,
	08/10/2022 03:10:11.108,479774,6330.76,9,6,-0.001059996,2.5,-0.00264999,0.001907817,0.001863775,0.006251357,0.00539905,6479.546,6329.822,0,97.69148,,
	08/10/2022 10:03:41.106,504584,6067.31,11,6,-0.001060072,2.5,-0.00265018,0.001826565,0.00178627,0.005990128,0.005172405,6203.628,6066.437,0,97.79394,,
	08/10/2022 16:43:45.349,528589,5894.28,13,6,-0.001059934,2.49999,-0.00264982,0.00177367,0.001735222,0.00581634,0.005031749,6023.826,5893.438,0,97.83231,,
	08/10/2022 23:10:45.992,551809,5691.68,15,6,-0.00105989,2.5,-0.002649725,0.001712642,0.00167555,0.005617544,0.004862129,5816.543,5690.805,0,97.83425,,
	08/11/2022 05:23:17.094,574160,5464.64,17,6,-0.001059978,2.5,-0.002649945,0.001646101,0.001608767,0.005402347,0.004667698,5590.587,5463.804,0,97.73203,,
	08/11/2022 11:20:00.532,595564,5235.86,19,6,-0.001059966,2.499996,-0.00264991,0.001574316,0.001541411,0.005172416,0.004469616,5346.872,5235.048,0,97.90987,,
	08/11/2022 17:06:12.189,616335,5104.663,21,6,-0.001059908,2.499992,-0.00264976,0.001534521,0.001502714,0.00504096,0.004363818,5211.591,5103.918,0,97.92719,,
	08/11/2022 22:41:44.986,636468,4938.49,23,6,-0.001059971,2.499973,-0.0026499,0.001484142,0.001453833,0.004876842,0.004223335,5040.566,4937.74,0,97.95775,,
	08/12/2022 04:04:23.281,655826,4738.85,25,6,-0.001059994,2.49999,-0.00264997,0.001424421,0.001395124,0.004684403,0.004050062,4837.767,4738.138,0,97.94328,,
	08/12/2022 09:14:45.415,674449,4568.95,27,6,-0.001060102,2.499964,-0.00265022,0.00137132,0.00134519,0.004513034,0.003903706,4657.439,4568.255,0,98.09456,,
	08/12/2022 14:16:15.654,692539,4462.8,29,6,-0.001059974,2.49999,-0.00264992,0.001336611,0.00131377,0.004399754,0.00381641,4539.431,4462.144,0,98.29113,,
	08/12/2022 19:11:27.511,710251,4356.09,31,6,-0.001059893,2.499983,-0.00264971,0.001306878,0.001282365,0.004300808,0.003728345,4438.417,4355.458,0,98.12431,,
	08/12/2022 23:57:55.911,727439,4222.42,33,6,-0.00106001,2.49999,-0.00265001,0.001267008,0.001243045,0.004170715,0.003613781,4303.041,4221.786,0,98.1087,,
	08/13/2022 04:34:53.312,744056,4082.44,35,6,-0.00105993,2.499992,-0.00264982,0.001224443,0.001201841,0.004032894,0.003492677,4158.446,4081.798,0,98.15405,,
	08/13/2022 09:02:45.121,760128,3944.27,37,6,-0.001059991,2.499994,-0.00264997,0.0011831,0.001161179,0.003898748,0.00337237,4018.127,3943.673,0,98.1471,,
	08/13/2022 13:23:34.307,775777,3868.45,39,6,-0.001059904,2.499996,-0.00264976,0.001156813,0.00113879,0.003812832,0.00331018,3928.777,3867.879,0,98.44202,,
	08/13/2022 17:38:37.574,791081,3760.93,41,6,-0.001059915,2.499996,-0.00264978,0.001127,0.001107179,0.003714796,0.003217657,3827.472,3760.406,0,98.2412,,
	08/13/2022 21:46:00.631,805924,3657.37,43,6,-0.00106004,2.499969,-0.00265007,0.001094082,0.001076675,0.003608081,0.003128575,3715.739,3656.822,0,98.40898,,
	08/14/2022 01:47:04.635,820387.822,3558.53,45,6,-0.001059941,2.49999,-0.00264984,0.001065762,0.001047588,0.003515325,0.003043558,3619.523,3558.022,0,98.29467,,
	08/14/2022 05:41:21.507,834445,3462.21,47,6,-0.001060008,2.499996,-0.00265002,0.001035611,0.001019252,0.003417169,0.002960494,3517.087,3461.7,0,98.42033,,
	08/14/2022 09:29:32.177,848135,3373.46,49,6,-0.001059988,2.499987,-0.00264996,0.001008686,0.0009930875,0.003329371,0.002883879,3425.754,3372.931,0,98.45361,,
	08/14/2022 13:13:04.152,861547,3311.09,51,6,-0.001059964,2.499994,-0.0026499,0.0009906909,0.0009747742,0.00326978,0.002832084,3364.626,3310.558,0,98.39337,,
	08/14/2022 16:50:10.382,874574,3206.87,53,6,-0.001060045,2.499994,-0.00265011,0.0009583262,0.0009441206,0.003164947,0.002740423,3254.789,3206.408,0,98.51767,,
	08/14/2022 20:22:21.271,887304,3148.97,55,6,-0.001059927,2.499992,-0.00264981,0.0009399613,0.0009270443,0.003104634,0.002691892,3192.367,3148.494,0,98.62579,,
	08/14/2022 23:51:24.487,899848,3097.69,57,6,-0.001059987,2.499994,-0.00264996,0.000925798,0.0009119363,0.003057216,0.002649155,3144.253,3097.236,0,98.50273,,
	08/15/2022 03:16:12.044,912135,3031.12,59,6,-0.001059999,2.499983,-0.00264998,0.0009058744,0.0008923089,0.002991836,0.002591851,3076.603,3030.659,0,98.50249,,
	08/15/2022 06:36:20.762,924143.949,2965.291,61,6,-0.001059958,2.5,-0.002649895,0.000885328,0.0008729739,0.002924491,0.002535382,3006.774,2964.847,0,98.60457,,
	08/15/2022 09:52:06.634,935890,2898.24,63,6,-0.001059846,2.499998,-0.00264961,0.000865278,0.0008532105,0.002858981,0.002477316,2938.599,2897.823,0,98.60535,,
	08/15/2022 13:04:07.287,947410,2846.533,65,6,-0.00105993,2.49999,-0.00264981,0.0008501053,0.000837991,0.002808868,0.002433613,2887.094,2846.112,0,98.57496,,
	08/15/2022 16:11:34.990,958658,2773.19,67,6,-0.001059953,2.49999,-0.00264987,0.0008278409,0.0008163783,0.002736175,0.002369287,2811.557,2772.745,0,98.61537,,
	08/15/2022 19:14:38.430,969642,2714.48,69,6,-0.001059936,2.499973,-0.00264981,0.0008094391,0.0007990942,0.002676176,0.002318452,2749.166,2714.075,0,98.72196,,
	08/15/2022 22:14:41.662,980445,2676.65,71,6,-0.001059925,2.499994,-0.00264981,0.0007976557,0.0007879313,0.002637162,0.002286942,2709.053,2676.233,0,98.78087,,
	08/16/2022 01:12:30.106,991113,2641.09,73,6,-0.001059857,2.499989,-0.00264963,0.0007872968,0.000777462,0.002602598,0.002257186,2673.792,2640.686,0,98.75081,,
	08/16/2022 04:07:31.595,1.00161e+06,2597.62,75,6,-0.001059929,2.5,-0.00264982,0.0007744887,0.0007647013,0.00256024,0.002220223,2630.262,2597.218,0,98.73627,,
	08/16/2022 06:59:28.993,1.01193e+06,2550.81,77,6,-0.001059915,2.5,-0.00264979,0.0007607313,0.0007508979,0.002514948,0.002179934,2583.585,2550.44,0,98.70737,,
	08/16/2022 09:47:41.958,1.02203e+06,2487.65,79,6,-0.001059957,2.499998,-0.00264989,0.0007425673,0.000732311,0.002455473,0.00212447,2521.986,2487.269,0,98.6188,,
	08/16/2022 12:31:14.505,1.03184e+06,2422.6,81,6,-0.001059938,2.499987,-0.00264983,0.0007222321,0.000713184,0.002389614,0.002067324,2452.923,2422.203,0,98.7472,,
	08/16/2022 15:11:08.666,1.04143e+06,2370.99,83,6,-0.001060038,2.499983,-0.00265008,0.0007065263,0.0006980107,0.002338341,0.002022414,2399.628,2370.619,0,98.79472,,
	08/16/2022 17:47:55.065,1.05084e+06,2328.98,85,6,-0.001059869,2.499983,-0.00264965,0.0006932541,0.000685628,0.00229496,0.001986111,2354.414,2328.629,0,98.89995,,
	08/16/2022 20:22:44.570,1060127.757,2304.8,87,6,-0.001059893,2.499983,-0.00264971,0.000686018,0.0006784655,0.002270744,0.001966097,2329.846,2304.44,0,98.89907,,
	08/16/2022 22:56:22.252,1.06935e+06,2286.09,89,6,-0.001059879,2.499992,-0.00264969,0.000680855,0.0006729754,0.002253204,0.001951052,2312.235,2285.728,0,98.84269,,
	08/17/2022 01:28:10.290,1.07845e+06,2256.596,91,6,-0.001059894,2.499992,-0.00264973,0.000672081,0.0006642892,0.002223988,0.001926066,2282.479,2256.284,0,98.84064,,
	08/17/2022 03:57:47.973,1.08743e+06,2223.186,93,6,-0.001059885,2.499987,-0.0026497,0.0006622218,0.0006544903,0.0021914,0.00189747,2249.012,2222.857,0,98.83249,,
	08/17/2022 06:25:16.546,1.09628e+06,2191.94,95,6,-0.001059927,2.49999,-0.00264981,0.0006525688,0.0006452902,0.002159514,0.001870628,2216.18,2191.575,0,98.88462,,
	08/17/2022 08:50:17.049,1.10498e+06,2150.521,97,6,-0.00105988,2.499996,-0.0026497,0.0006409858,0.0006330577,0.002121401,0.001834429,2176.956,2150.215,0,98.76312,,
	08/17/2022 11:12:27.765,1.11351e+06,2112.98,99,6,-0.001059895,2.499985,-0.00264972,0.0006288674,0.0006220139,0.002081827,0.001801833,2135.711,2112.666,0,98.91019,,
	08/17/2022 13:32:25.686,1121908.873,2078.83,101,6,-0.00105984,2.499998,-0.0026496,0.0006190441,0.0006119814,0.002049432,0.001772378,2102.351,2078.532,0,98.8591,,
	08/17/2022 15:49:56.886,1.13016e+06,2039.97,103,6,-0.001059934,2.49999,-0.00264982,0.0006077912,0.0006005281,0.002012496,0.001738532,2064.19,2039.677,0,98.80502,,
	08/17/2022 18:03:58.604,1.1382e+06,1984.06,105,6,-0.001059916,2.499977,-0.00264977,0.0005913757,0.0005840968,0.001959194,0.001689112,2008.514,1983.748,0,98.76915,,
	08/17/2022 20:14:42.596,1.14605e+06,1941.01,107,6,-0.001060006,2.499977,-0.00264999,0.000577145,0.0005714367,0.001913057,0.0016513,1960.223,1940.714,0,99.01094,,
	08/17/2022 22:23:07.687,1.15375e+06,1910.29,109,6,-0.001059934,2.499998,-0.00264983,0.0005676936,0.0005623937,0.001881879,0.001624786,1928.076,1909.998,0,99.06642,,
	08/18/2022 00:29:43.736,1.16135e+06,1882.47,111,6,-0.001059955,2.5,-0.00264989,0.0005596107,0.0005541947,0.00185519,0.001600796,1900.578,1882.2,0,99.03219,,
	08/18/2022 02:34:36.870,1168840.057,1857.39,113,6,-0.001059858,2.5,-0.002649645,0.0005522856,0.0005468327,0.001830999,0.001579401,1875.669,1857.146,0,99.01268,,
	08/18/2022 04:37:52.144,1.17624e+06,1834.67,115,6,-0.001059924,2.5,-0.00264981,0.0005450441,0.0005400814,0.001807061,0.00155969,1851.158,1834.366,0,99.08949,,
	08/18/2022 06:39:24.262,1.18353e+06,1805.9,117,6,-0.001060117,2.499994,-0.00265029,0.0005374183,0.0005317082,0.001781967,0.001535093,1825.259,1805.667,0,98.93749,,
	08/18/2022 08:39:07.287,1.19071e+06,1781.33,119,6,-0.001059952,2.5,-0.00264988,0.0005295121,0.0005243871,0.001755917,0.001513556,1798.449,1781.047,0,99.03212,,
	08/18/2022 10:37:24.069,1.19781e+06,1761.26,121,6,-0.001059974,2.499989,-0.00264992,0.0005232455,0.0005184911,0.001735292,0.001496409,1777,1760.993,0,99.09138,,
	08/18/2022 12:34:11.176,1.20481e+06,1737.04,123,6,-0.001059948,2.499989,-0.00264986,0.0005162154,0.0005113869,0.001712003,0.001475635,1753.223,1736.775,0,99.06464,,
	08/18/2022 14:29:27.313,1.21173e+06,1716.255,125,6,-0.001059985,2.499996,-0.00264996,0.0005098483,0.0005052449,0.001691052,0.00145768,1731.643,1715.983,0,99.09711,,
	08/18/2022 16:23:19.772,1.21856e+06,1695.65,127,6,-0.001060024,2.499996,-0.00265006,0.0005036354,0.0004991863,0.001670488,0.00143993,1710.425,1695.407,0,99.11662,,
	08/18/2022 18:15:55.013,1225318.2,1675.49,129,6,-0.001059874,2.499977,-0.00264966,0.0004980052,0.000493271,0.001651888,0.001422624,1691.36,1675.266,0,99.04938,,
	08/18/2022 20:07:08.408,1.23199e+06,1655.28,131,6,-0.001060022,2.499998,-0.00265005,0.0004917484,0.0004873012,0.001631179,0.001405161,1670.23,1655.013,0,99.09563,,
	08/18/2022 21:57:00.213,1.23858e+06,1635.69,133,6,-0.00106003,2.499996,-0.00265007,0.0004857024,0.0004815648,0.001611245,0.00138829,1649.587,1635.447,0,99.14814,,
	08/18/2022 23:45:27.289,1.24509e+06,1614.316,135,6,-0.00106007,2.499998,-0.00265017,0.0004795445,0.0004753074,0.001590959,0.001369987,1628.752,1614.1,0,99.11645,,
	08/19/2022 01:32:33.753,1.25152e+06,1594.95,137,6,-0.001060006,2.499994,-0.00265001,0.0004734786,0.0004695808,0.00157092,0.001353203,1608.156,1594.718,0,99.17678,,
	08/19/2022 03:18:26.682,1.25787e+06,1577.51,139,6,-0.001060025,2.5,-0.00265006,0.0004681404,0.0004644351,0.001553251,0.001338203,1589.979,1577.263,0,99.20851,,
	08/19/2022 05:03:08.255,1.26415e+06,1559.18,141,6,-0.001060163,2.5,-0.00265041,0.0004628161,0.0004590475,0.001535696,0.001322364,1571.86,1558.939,0,99.18573,,
	08/19/2022 06:46:42.542,1.27037e+06,1542.74,143,6,-0.001060093,2.499992,-0.00265022,0.0004580539,0.0004542319,0.001519982,0.001308261,1555.738,1542.512,0,99.1656,,
	08/19/2022 08:29:08.444,1.27651e+06,1526.698,145,6,-0.001060033,2.49999,-0.00265007,0.0004529868,0.000449472,0.001503187,0.001294469,1538.558,1526.455,0,99.22409,,
	08/19/2022 10:10:32.238,1.2826e+06,1510.87,147,6,-0.001060054,2.499981,-0.00265011,0.0004483139,0.0004448184,0.001487744,0.001280868,1522.648,1510.644,0,99.2203,,
	08/19/2022 11:50:56.942,1.28862e+06,1496.272,149,6,-0.001059936,2.499996,-0.00264984,0.0004440931,0.0004404879,0.001473744,0.001268222,1508.239,1496.032,0,99.18818,,
	08/19/2022 13:30:23.782,1.29459e+06,1483.11,151,6,-0.001059988,2.499994,-0.00264996,0.0004398954,0.0004366182,0.001459851,0.001257043,1493.968,1482.905,0,99.255,,
	08/19/2022 15:08:52.799,1.3005e+06,1467.15,153,6,-0.001059958,2.499987,-0.00264988,0.0004355077,0.000431927,0.001445316,0.00124326,1479.074,1466.936,0,99.17781,,
	08/19/2022 16:46:19.052,1.30634e+06,1451.87,155,6,-0.001059904,2.499996,-0.00264976,0.0004308349,0.0004274078,0.001429866,0.001230081,1463.245,1451.642,0,99.20455,,
	08/19/2022 18:22:45.155,1.31213e+06,1436.82,157,6,-0.001060043,2.499996,-0.0026501,0.000426367,0.0004229829,0.001415092,0.001217076,1448.079,1436.604,0,99.2063,,
	08/19/2022 19:58:14.512,1317857.699,1423.37,159,6,-0.001060054,2.5,-0.002650135,0.0004222207,0.0004190358,0.001401422,0.00120566,1433.972,1423.162,0,99.24568,,
	08/19/2022 21:32:47.318,1.32353e+06,1408.84,161,6,-0.00106003,2.499979,-0.00265005,0.0004180436,0.000414784,0.001387584,0.001193117,1419.773,1408.65,0,99.22028,,
	08/19/2022 23:06:20.424,1.32914e+06,1394.27,163,6,-0.001060019,2.499933,-0.00264998,0.0004137137,0.0004104967,0.001373252,0.001180615,1405.116,1394.068,0,99.22241,,
	08/20/2022 00:38:59.699,1.3347e+06,1381.33,165,6,-0.001059994,2.499996,-0.00264998,0.0004097402,0.0004066675,0.001360106,0.001169386,1391.594,1381.126,0,99.25008,,
	08/20/2022 02:10:45.133,1.34021e+06,1368.49,167,6,-0.001060043,2.499998,-0.00265011,0.0004054824,0.000402886,0.001345957,0.001158303,1377.138,1368.291,0,99.35968,,
	08/20/2022 03:41:39.464,1.34566e+06,1354.65,169,6,-0.00106002,2.499994,-0.00265004,0.0004019048,0.0003988278,0.001334167,0.001146563,1365.015,1354.453,0,99.2344,,
	08/20/2022 05:11:42.488,1.35107e+06,1342.64,171,6,-0.001060015,2.499998,-0.00265004,0.0003984226,0.0003952748,0.001322648,0.001136188,1353.192,1342.428,0,99.20992,,
	08/20/2022 06:40:58.359,1.35642e+06,1331.04,173,6,-0.001059921,2.499996,-0.0026498,0.00039478,0.0003918588,0.001310554,0.001126181,1340.804,1330.833,0,99.26004,,
	08/20/2022 08:09:28.369,1.36173e+06,1319.683,175,6,-0.001059962,2.499987,-0.00264989,0.00039138,0.0003884977,0.001299314,0.001116396,1329.225,1319.476,0,99.26355,,
	08/20/2022 09:37:09.923,1366993.11,1308.04,177,6,-0.001059918,2.499996,-0.00264979,0.0003878762,0.0003850555,0.001287734,0.001106397,1317.369,1307.839,0,99.27277,,
	08/20/2022 11:04:07.788,1.37221e+06,1296.94,179,6,-0.001059964,2.499992,-0.0026499,0.0003844509,0.0003817899,0.001276364,0.001096811,1305.684,1296.734,0,99.30786,,
	08/20/2022 12:30:22.519,1.37739e+06,1286.76,181,6,-0.001060015,2.499981,-0.00265002,0.0003813199,0.0003788089,0.001265937,0.001088021,1295.079,1286.549,0,99.34151,,
	08/20/2022 13:55:50.719,1.38251e+06,1274.1,183,6,-0.001060038,2.499983,-0.00265008,0.0003779624,0.0003751001,0.001254894,0.001077235,1283.677,1273.91,0,99.24271,,
	08/20/2022 15:20:32.182,1.3876e+06,1263.33,185,6,-0.001059983,2.499989,-0.00264995,0.0003746418,0.0003719212,0.001243892,0.001068007,1272.392,1263.136,0,99.27381,,
	08/20/2022 16:44:32.149,1.39264e+06,1253.67,187,6,-0.001059997,2.499989,-0.00264998,0.0003715993,0.0003690658,0.001233829,0.001059663,1262.072,1253.475,0,99.31822,,
	08/20/2022 18:07:54.165,1.39764e+06,1243.66,189,6,-0.001059994,2.499992,-0.00264998,0.0003687444,0.000366124,0.001224327,0.001051135,1252.358,1243.468,0,99.28938,,
	08/20/2022 19:30:31.931,1.4026e+06,1232.17,191,6,-0.001060036,2.499998,-0.00265009,0.0003654992,0.0003627477,0.001213569,0.001041267,1241.379,1231.978,0,99.24718,,
	08/20/2022 20:52:29.696,1.40751e+06,1222.74,193,6,-0.001060008,2.499987,-0.00265001,0.0003624168,0.0003599449,0.001203398,0.001033098,1230.869,1222.528,0,99.31792,,
	08/20/2022 22:13:47.470,1.41239e+06,1212.87,195,6,-0.001060035,2.499983,-0.00265007,0.00035961,0.0003570499,0.001194056,0.001024674,1221.328,1212.69,0,99.28811,,
	08/20/2022 23:34:28.833,1417232.02,1203.79,197,6,-0.001059922,2.499994,-0.0026498,0.0003567933,0.0003543743,0.001184721,0.001016869,1211.78,1203.604,0,99.32201,,
	08/21/2022 00:54:31.794,1.42203e+06,1194.32,199,6,-0.00105995,2.5,-0.002649875,0.0003539394,0.0003515986,0.001175276,0.001008715,1202.124,1194.146,0,99.33866,,
	08/21/2022 02:13:52.536,1.4268e+06,1183.61,201,6,-0.00105996,2.499998,-0.0026499,0.0003508152,0.0003484518,0.001164938,0.0009995128,1191.546,1183.414,0,99.3263,,
	08/21/2022 03:32:33.355,1.43152e+06,1173.4,203,6,-0.001059905,2.499971,-0.00264973,0.0003478693,0.0003454582,0.001155141,0.0009907809,1181.529,1173.218,0,99.3069,,
	08/21/2022 04:50:35.268,1.4362e+06,1164.04,205,6,-0.00106003,2.499998,-0.00265007,0.0003450692,0.0003427212,0.001145888,0.0009828025,1172.01,1163.854,0,99.31957,,
	08/21/2022 06:07:58.507,1.44084e+06,1154.398,207,6,-0.001060091,2.499992,-0.00265022,0.0003422851,0.0003398893,0.001136665,0.0009746416,1162.546,1154.228,0,99.30003,,
	08/21/2022 07:24:47.146,1.44545e+06,1146.34,209,6,-0.001060161,2.499998,-0.0026504,0.0003396085,0.0003375232,0.001127802,0.0009677002,1153.465,1146.182,0,99.38596,,
	08/21/2022 08:41:00.280,1.45002e+06,1137.041,211,6,-0.001060107,2.499966,-0.00265023,0.0003369797,0.0003347815,0.001119086,0.0009597564,1144.53,1136.893,0,99.34768,,
	08/21/2022 09:56:39.371,1.45456e+06,1129.42,213,6,-0.001060083,2.499998,-0.00265021,0.000334533,0.0003325247,0.001110967,0.0009531608,1136.174,1129.262,0,99.39967,,
	08/21/2022 11:11:48.599,1459071.786,1121.75,215,6,-0.001059973,2.5,-0.00264993,0.0003323867,0.000330253,0.001103859,0.0009465186,1128.832,1121.574,0,99.35806,,
	08/21/2022 12:26:30.842,1.46355e+06,1115.352,217,6,-0.001060001,2.5,-0.00265,0.0003304995,0.0003283499,0.001097581,0.0009410135,1122.447,1115.172,0,99.34959,,
	08/21/2022 13:40:42.205,1.46801e+06,1107.28,219,6,-0.001060006,2.499996,-0.00265001,0.0003281612,0.0003259904,0.001089833,0.000934176,1114.53,1107.14,0,99.3385,,
	08/21/2022 14:54:21.173,1.47242e+06,1099.03,221,6,-0.001060025,2.49999,-0.00265005,0.0003258364,0.0003235638,0.00108213,0.0009271827,1106.646,1098.862,0,99.30253,,
	08/21/2022 16:07:26.475,1476809.662,1090.89,223,6,-0.001060043,2.499992,-0.0026501,0.0003231317,0.0003211709,0.001073104,0.0009201514,1097.502,1090.744,0,99.3932,,
	08/21/2022 17:20:00.112,1.48116e+06,1082.69,225,6,-0.001059944,2.499983,-0.00264984,0.0003208001,0.0003187399,0.001065391,0.0009130618,1089.599,1082.514,0,99.3578,,
	08/21/2022 18:32:03.645,1.48549e+06,1075.3,227,6,-0.001059994,2.499983,-0.00264997,0.000318682,0.0003165827,0.001058406,0.0009067904,1082.356,1075.15,0,99.34125,,
	08/21/2022 19:43:35.292,1.48978e+06,1068.06,229,6,-0.001060027,2.499994,-0.00265006,0.0003164363,0.000314446,0.001050957,0.0009005498,1074.711,1067.9,0,99.37102,,
	08/21/2022 20:54:35.988,1.49404e+06,1059.8,231,6,-0.001060144,2.5,-0.00265036,0.0003139952,0.0003120076,0.001042817,0.0008934671,1066.42,1059.639,0,99.36702,,
	08/21/2022 22:05:08.930,1.49827e+06,1052.84,233,6,-0.001059966,2.499996,-0.00264991,0.0003119292,0.0003099637,0.001035969,0.0008875364,1059.455,1052.671,0,99.36988,,
	08/21/2022 23:15:10.497,1.50247e+06,1044.96,235,6,-0.001060044,2.49999,-0.0026501,0.0003096159,0.0003076604,0.001028304,0.0008808505,1051.548,1044.795,0,99.36839,,
	08/22/2022 00:24:44.450,1.50665e+06,1038.85,237,6,-0.00106013,2.499968,-0.00265029,0.0003076605,0.0003058587,0.001021817,0.0008755859,1044.943,1038.702,0,99.41437,,
	08/22/2022 01:33:52.291,1.5108e+06,1031.79,239,6,-0.001060022,2.499992,-0.00265005,0.000305667,0.000303782,0.001015184,0.0008695631,1038.214,1031.642,0,99.38332,,
	08/22/2022 02:42:33.048,1.51492e+06,1025.68,241,6,-0.001060077,2.49999,-0.00265018,0.0003036526,0.0003019854,0.001008504,0.000864314,1031.315,1025.524,0,99.45094,,
	08/22/2022 03:50:45.941,1.51901e+06,1018.3,243,6,-0.001060151,2.499998,-0.00265038,0.0003016737,0.0002998145,0.001001942,0.0008580175,1024.626,1018.147,0,99.38371,,
	08/22/2022 04:58:32.489,1.52308e+06,1011.67,245,6,-0.001060064,2.499983,-0.00265014,0.0002997621,0.0002978603,0.0009955877,0.0008523535,1018.146,1011.501,0,99.36555,,
	08/22/2022 06:05:53.479,1.52712e+06,1005.83,247,6,-0.001060112,2.5,-0.00265028,0.0002979273,0.0002961414,0.0009895142,0.0008473403,1011.862,1005.661,0,99.40056,,
	08/22/2022 07:12:49.915,1531133.102,999.3771,249,6,-0.001060054,2.499992,-0.00265013,0.0002961009,0.0002942308,0.0009834551,0.0008418171,1005.701,999.2213,0,99.36842,,
	08/22/2022 08:19:20.195,1.53512e+06,992.804,251,6,-0.001060033,2.499973,-0.00265005,0.0002940278,0.0002923059,0.0009765266,0.0008362284,998.6481,992.6486,0,99.41438,,
	08/22/2022 09:25:29.475,1.53909e+06,987.9315,253,6,-0.001060069,2.499992,-0.00265016,0.0002926793,0.0002908685,0.0009721015,0.0008320664,994.1128,987.7716,0,99.38132,,
	08/22/2022 10:31:14.114,1.54304e+06,981.5383,255,6,-0.001060033,2.499977,-0.00265006,0.0002906791,0.0002889843,0.0009654264,0.0008265972,987.2726,981.3921,0,99.41695,,
	08/22/2022 11:36:38.257,1.54696e+06,976.5193,257,6,-0.001060008,2.49999,-0.00265001,0.0002892552,0.0002874808,0.0009607062,0.0008222645,982.3636,976.3535,0,99.38656,,
	08/22/2022 12:41:43.062,1.55087e+06,972.0952,259,6,-0.001059932,2.5,-0.00264983,0.0002880263,0.0002861571,0.0009566195,0.0008184246,978.2161,971.9165,0,99.35103,,
	08/22/2022 13:46:26.337,1.55475e+06,966.2385,261,6,-0.001059908,2.499956,-0.00264972,0.0002862765,0.0002844471,0.0009508044,0.00081347,972.2949,966.0845,0,99.36098,,
	08/22/2022 14:50:46.744,1.55861e+06,961.387,263,6,-0.001060031,2.499985,-0.00265006,0.0002846825,0.0002830393,0.0009455195,0.0008093547,966.8993,961.2417,0,99.4228,,
	08/22/2022 15:54:44.803,1.56245e+06,954.941,265,6,-0.001060027,2.499998,-0.00265007,0.0002827949,0.0002811325,0.0009392606,0.0008038304,960.4432,954.8061,0,99.41215,,
	08/22/2022 16:58:18.406,1566261.593,949.0183,267,6,-0.001060019,2.499998,-0.00265005,0.0002810863,0.0002793867,0.0009335776,0.0007987416,954.6023,948.8853,0,99.39533,,
	08/22/2022 18:01:26.139,1.57005e+06,942.9143,269,6,-0.001059908,2.499983,-0.00264975,0.0002790632,0.0002775796,0.0009268701,0.0007935237,947.81,942.7859,0,99.46833,,
	08/22/2022 19:04:11.195,1.57381e+06,937.1838,271,6,-0.001060027,2.499985,-0.00265005,0.0002774727,0.0002759198,0.0009215771,0.0007886895,942.4248,937.045,0,99.44035,,
	08/22/2022 20:06:34.309,1.57756e+06,931.7886,273,6,-0.001060121,2.499998,-0.0026503,0.0002759062,0.0002743379,0.0009163801,0.0007840972,937.0497,931.6765,0,99.43156,,
	08/22/2022 21:08:37.545,1.58128e+06,926.7342,275,6,-0.001060005,2.499998,-0.00265001,0.0002744508,0.0002728407,0.0009115607,0.0007797719,932.0568,926.6279,0,99.41334,,
	08/22/2022 22:10:20.973,1.58498e+06,922.3283,277,6,-0.001059964,2.499983,-0.00264989,0.0002730076,0.0002715077,0.0009067614,0.0007759093,927.2047,922.1769,0,99.45061,,
	08/22/2022 23:11:45.215,1.58867e+06,917.2099,279,6,-0.001059991,2.499987,-0.00264996,0.0002715642,0.0002700435,0.0009019295,0.0007716456,922.342,917.0822,0,99.44001,,
	08/23/2022 00:12:49.335,1592332.522,912.3777,281,6,-0.00106004,2.5,-0.0026501,0.0002702152,0.0002686115,0.0008975041,0.0007675281,917.7045,912.2639,0,99.40649,,
	08/23/2022 01:13:33.145,1.59598e+06,906.7789,283,6,-0.001059999,2.49999,-0.00264999,0.0002685902,0.0002669594,0.0008920701,0.0007626935,912.1414,906.6544,0,99.39281,,
	08/23/2022 02:13:59.263,1.5996e+06,902.9861,285,6,-0.001060033,2.499998,-0.00265008,0.0002673549,0.0002658186,0.0008880229,0.000759453,908.0465,902.8393,0,99.42539,,
	08/23/2022 03:14:02.238,1.60321e+06,896.4463,287,6,-0.001060111,2.499983,-0.00265026,0.000265507,0.0002639329,0.000881859,0.0007539733,901.7431,896.3121,0,99.40713,,
	08/23/2022 04:13:44.859,1.60679e+06,892.0272,289,6,-0.001060078,2.499962,-0.00265015,0.0002640439,0.0002626176,0.000876983,0.0007501065,896.7609,891.8984,0,99.45982,,
	08/23/2022 05:13:06.989,1.61035e+06,886.9255,291,6,-0.001060033,2.499996,-0.00265008,0.0002625289,0.0002611188,0.0008719693,0.0007458035,891.6022,886.7873,0,99.46288,,
	08/23/2022 06:12:10.253,1.61389e+06,881.5926,293,6,-0.001060027,2.499962,-0.00265003,0.0002610172,0.0002595615,0.0008669195,0.000741263,886.5541,881.4708,0,99.44228,,
	08/23/2022 07:10:50.634,1.61741e+06,876.2713,295,6,-0.001060116,2.499994,-0.00265028,0.0002595154,0.0002579948,0.0008619526,0.0007367416,881.4067,876.1447,0,99.41406,,
	08/23/2022 08:09:11.604,1620914.791,871.4475,297,6,-0.001060058,2.499994,-0.00265014,0.0002579899,0.0002565684,0.000856858,0.0007325596,876.1682,871.3426,0,99.44897,,
	08/23/2022 09:07:14.479,1.6244e+06,867.5446,299,6,-0.001059934,2.499983,-0.00264982,0.0002568259,0.0002553963,0.0008530222,0.0007292213,872.2747,867.4162,0,99.44334,,
	08/23/2022 10:05:00.337,1.62786e+06,862.5227,301,6,-0.001060111,2.499977,-0.00265025,0.0002553547,0.0002539499,0.0008481328,0.0007250512,867.2596,862.419,0,99.44988,,
	08/23/2022 11:02:28.933,1.63131e+06,858.5737,303,6,-0.001059977,2.499975,-0.00264992,0.0002542467,0.0002527593,0.0008444291,0.0007216175,863.4676,858.4519,0,99.41495,,
	08/23/2022 11:59:42.603,1.63475e+06,855.3355,305,6,-0.001059982,2.499977,-0.00264993,0.0002530618,0.000251789,0.0008404935,0.0007188058,859.4301,855.204,0,99.49706,,
	08/23/2022 12:56:41.293,1.63816e+06,850.653,307,6,-0.001060038,2.499992,-0.00265009,0.0002519084,0.0002504291,0.0008366599,0.0007148488,855.5771,850.5085,0,99.41274,,
	08/23/2022 13:53:19.681,1.64156e+06,845.7425,309,6,-0.001060054,2.499962,-0.00265009,0.000250445,0.0002489833,0.0008317931,0.0007106765,850.5641,845.624,0,99.41636,,
	08/23/2022 14:49:38.332,1.64494e+06,841.2936,311,6,-0.001060025,2.5,-0.00265006,0.0002489561,0.0002476628,0.0008268552,0.0007068222,845.4936,841.1761,0,99.48054,,
	08/23/2022 15:45:40.463,1.6483e+06,836.5336,313,6,-0.00105996,2.499998,-0.0026499,0.0002476756,0.0002462757,0.0008225855,0.000702826,841.2335,836.3976,0,99.43476,,
	08/23/2022 16:41:21.542,1.65164e+06,831.5299,315,6,-0.001060029,2.499998,-0.00265007,0.0002462575,0.0002448169,0.0008178607,0.0006986183,836.352,831.425,0,99.41501,,
	08/23/2022 17:36:47.758,1.65497e+06,828.3536,317,6,-0.001059966,2.499996,-0.00264991,0.0002451544,0.0002438545,0.0008142411,0.0006958541,832.6076,828.2189,0,99.46978,,
	08/23/2022 18:31:55.782,1.65828e+06,823.8944,319,6,-0.00105998,2.5,-0.00264995,0.0002437569,0.0002425495,0.0008095492,0.0006920153,827.9116,823.7583,0,99.50469,,
	08/23/2022 19:26:46.387,1.66157e+06,819.2085,321,6,-0.001060035,2.499994,-0.00265008,0.0002425892,0.0002411807,0.0008057018,0.0006880931,823.8872,819.0821,0,99.41941,,
	08/23/2022 20:21:20.799,1664843.986,815.4589,323,6,-0.001059946,2.499994,-0.00264986,0.0002413943,0.0002400612,0.0008017322,0.0006848471,819.8329,815.3335,0,99.44777,,
	08/23/2022 21:15:38.327,1.6681e+06,810.8924,325,6,-0.001060006,2.499977,-0.00264999,0.0002400679,0.0002387246,0.000797312,0.0006810084,815.3621,810.7512,0,99.44045,,
	08/23/2022 22:09:37.039,1.67134e+06,806.0485,327,6,-0.001060089,2.499992,-0.00265021,0.0002386729,0.0002373238,0.0007926756,0.0006769436,810.6143,805.9441,0,99.43478,,
	08/23/2022 23:03:15.311,1.67456e+06,801.3616,329,6,-0.001059966,2.499968,-0.00264988,0.0002370924,0.0002359229,0.0007874086,0.0006728945,805.2558,801.2459,0,99.50675,,
	08/23/2022 23:56:37.907,1.67776e+06,797.5133,331,6,-0.001060006,2.49999,-0.00265,0.0002360572,0.0002348025,0.0007839866,0.00066966,801.7653,797.4036,0,99.46845,,
	08/24/2022 00:49:44.762,1.68095e+06,793.3525,333,6,-0.001060131,2.499989,-0.00265032,0.0002349214,0.0002335861,0.000780226,0.0006661467,797.8766,793.2384,0,99.43159,,
	08/24/2022 01:42:33.637,1.68412e+06,788.6228,335,6,-0.001060052,2.499975,-0.0026501,0.0002335169,0.0002321817,0.0007755317,0.0006620664,793.1386,788.5023,0,99.4282,,
	08/24/2022 02:35:07.877,1.68727e+06,785.3621,337,6,-0.001060047,2.499971,-0.00265009,0.0002325165,0.0002312167,0.0007722407,0.0006592998,789.7579,785.2257,0,99.44099,,
	08/24/2022 03:27:25.875,1.69041e+06,781.6179,339,6,-0.001060121,2.499987,-0.00265029,0.0002312674,0.0002301343,0.000768071,0.0006561569,785.4703,781.5111,0,99.51004,,
	08/24/2022 04:19:29.065,1.69353e+06,777.5037,341,6,-0.001060068,2.49999,-0.00265016,0.000230183,0.0002289246,0.0007644637,0.000652683,781.782,777.3971,0,99.45331,,
	08/24/2022 05:11:17.039,1.69664e+06,774.1267,343,6,-0.001060083,2.499996,-0.0026502,0.0002290533,0.0002279226,0.0007607221,0.000649804,777.9807,774.0098,0,99.50636,,
	08/24/2022 06:02:50.677,1.69973e+06,770.4881,345,6,-0.00106008,2.499994,-0.00265019,0.0002280466,0.0002268443,0.0007573577,0.0006466844,774.5434,770.3711,0,99.47278,,
	08/24/2022 06:54:11.007,1.70281e+06,767.0833,347,6,-0.001060167,2.499996,-0.00265041,0.0002270238,0.000225855,0.0007539611,0.0006438132,771.0338,766.965,0,99.48516,,
	08/24/2022 07:45:17.227,1.70588e+06,763.5271,349,6,-0.00106011,2.499998,-0.00265027,0.0002260728,0.0002248114,0.0007508195,0.000640805,767.8604,763.4258,0,99.44202,,
	08/24/2022 08:36:10.223,1.70893e+06,760.1608,351,6,-0.001060031,2.49999,-0.00265007,0.0002250268,0.0002238091,0.0007473344,0.0006379176,764.3103,760.047,0,99.45882,,
	08/24/2022 09:26:48.974,1711972.161,756.4313,353,6,-0.001060063,2.499994,-0.00265015,0.0002239516,0.0002226999,0.0007437437,0.0006347218,760.6408,756.3131,0,99.44106,,
	08/24/2022 10:17:13.983,1.715e+06,753.3014,355,6,-0.001060112,2.499987,-0.00265027,0.0002229608,0.0002217945,0.0007404649,0.0006321072,757.2143,753.1967,0,99.47693,,
	08/24/2022 11:07:27.852,1.71801e+06,751.0255,357,6,-0.001060094,2.5,-0.002650235,0.0002222007,0.0002211146,0.0007379337,0.0006301454,754.6483,750.911,0,99.51124,,
	08/24/2022 11:57:33.551,1.72102e+06,748.8623,359,6,-0.00105998,2.499989,-0.00264994,0.0002216155,0.0002204592,0.0007359702,0.0006282731,752.6754,748.7459,0,99.47823,,
	08/24/2022 12:47:29.501,1.72401e+06,746.3239,361,6,-0.001059991,2.499994,-0.00264997,0.0002209953,0.0002197112,0.0007339009,0.0006261287,750.5745,746.2114,0,99.41896,,
	08/24/2022 13:37:14.189,1.727e+06,743.3424,363,6,-0.00106004,2.5,-0.0026501,0.000220012,0.0002188341,0.0007306425,0.0006235943,747.1812,743.2262,0,99.46462,,
	08/24/2022 14:26:47.361,1.72997e+06,740.9573,365,6,-0.001059992,2.499985,-0.00264996,0.000219158,0.0002181323,0.0007277857,0.0006215536,744.2927,740.8454,0,99.53194,,
	08/24/2022 15:16:10.233,1.73293e+06,737.7943,367,6,-0.001060002,2.499992,-0.00265,0.0002184149,0.000217204,0.000725318,0.0006189009,741.7954,737.6908,0,99.4456,,
	08/24/2022 16:05:18.334,1.73588e+06,734.4605,369,6,-0.001059876,2.499966,-0.00264965,0.000217332,0.0002162051,0.0007217246,0.0006160283,738.1352,734.3419,0,99.48151,,
	08/24/2022 16:54:14.384,1.73882e+06,730.7309,371,6,-0.001059908,2.499969,-0.00264974,0.0002164257,0.0002151161,0.0007186918,0.0006128805,735.0761,730.6187,0,99.39492,,
	08/24/2022 17:42:55.362,1.74174e+06,727.8327,373,6,-0.001060047,2.499998,-0.00265012,0.000215379,0.0002142745,0.0007152236,0.0006104694,731.4637,727.7428,0,99.48719,,
	08/24/2022 18:31:23.492,1.74465e+06,724.0206,375,6,-0.001060017,2.5,-0.00265004,0.0002143169,0.0002131505,0.0007116799,0.0006072103,727.8771,723.9216,0,99.45573,,
	08/24/2022 19:19:40.996,1.74754e+06,721.4707,377,6,-0.001060029,2.499996,-0.00265007,0.0002135087,0.0002124071,0.0007090006,0.0006050628,725.137,721.3769,0,99.48405,,
	08/24/2022 20:07:47.548,1.75043e+06,718.4618,379,6,-0.001059932,2.499987,-0.00264982,0.0002127646,0.0002115131,0.0007065432,0.0006025212,722.6433,718.363,0,99.4118,,
	08/24/2022 20:55:37.950,1.7533e+06,714.7461,381,6,-0.001060049,2.499983,-0.0026501,0.0002115292,0.0002104307,0.0007024218,0.0005993627,718.4481,714.6323,0,99.48069,,
	08/24/2022 21:43:14.879,1.75616e+06,711.2908,383,6,-0.00106007,2.5,-0.002650175,0.0002105093,0.0002094115,0.000699008,0.0005964357,714.9549,711.1798,0,99.47849,,
	08/24/2022 22:30:38.171,1759001.358,707.914,385,6,-0.001060064,2.499998,-0.00265016,0.0002094925,0.000208431,0.0006956207,0.0005935953,711.5327,707.8246,0,99.49332,,
	08/24/2022 23:17:48.060,1.76183e+06,704.6586,387,6,-0.001060125,2.499987,-0.0026503,0.0002085892,0.000207476,0.0006926473,0.0005908725,708.4463,704.557,0,99.46632,,
	08/25/2022 00:04:45.439,1764648.626,701.364,389,6,-0.00106013,2.499996,-0.00265032,0.0002076103,0.0002064991,0.000689381,0.0005880374,705.1157,701.2604,0,99.46476,,
	08/25/2022 00:51:29.214,1.76745e+06,698.3592,391,6,-0.001060121,2.499981,-0.00265028,0.00020667,0.0002056187,0.0006862585,0.0005855116,701.9442,698.2659,0,99.49133,,
	08/25/2022 01:38:00.928,1.77024e+06,695.4296,393,6,-0.001060089,2.499992,-0.00265021,0.0002057294,0.0002047433,0.0006831189,0.0005829771,698.705,695.3396,0,99.52069,,
	08/25/2022 02:24:20.999,1.77302e+06,692.4106,395,6,-0.001060057,2.499958,-0.0026501,0.0002049423,0.0002038612,0.0006805137,0.0005804432,696.0997,692.3074,0,99.47251,,
	08/25/2022 03:10:29.824,1.77579e+06,689.7294,397,6,-0.001060047,2.499989,-0.00265011,0.0002040843,0.000203063,0.0006776534,0.0005781461,693.1325,689.6292,0,99.49957,,
	08/25/2022 03:56:27.112,1.77855e+06,686.8481,399,6,-0.00106005,2.499994,-0.00265012,0.0002032457,0.0002022296,0.0006748725,0.0005757553,690.3306,686.7624,0,99.50009,,
	08/25/2022 04:42:14.488,1.7813e+06,684.4646,401,6,-0.001060139,2.499985,-0.00265033,0.0002025667,0.0002015339,0.0006726224,0.0005737538,687.983,684.3878,0,99.49015,,
	08/25/2022 05:27:50.466,1.78403e+06,681.5689,403,6,-0.001059974,2.499989,-0.00264992,0.0002016283,0.0002006591,0.0006694766,0.0005712466,684.8135,681.456,0,99.51934,,
	08/25/2022 06:13:15.231,1786758.418,678.6846,405,6,-0.001060072,2.5,-0.00265018,0.0002008418,0.0001998235,0.0006668728,0.0005688551,682.1286,678.5748,0,99.49299,,
	08/25/2022 06:58:31.867,1.78948e+06,676.5139,407,6,-0.001060022,2.499996,-0.00265005,0.0002002019,0.0001991667,0.0006647406,0.0005669607,679.9492,676.4066,0,99.48294,,
	08/25/2022 07:43:37.548,1.79218e+06,673.8455,409,6,-0.001059837,2.499996,-0.00264959,0.0001994611,0.0001984069,0.0006622834,0.0005647845,677.4648,673.7664,0,99.4715,,
	08/25/2022 08:28:34.017,1.79488e+06,671.8981,411,6,-0.001060084,2.499979,-0.00265019,0.0001987549,0.0001978262,0.0006599542,0.0005630993,675.0076,671.8146,0,99.53273,,
	08/25/2022 09:13:21.792,1.79756e+06,669.7472,413,6,-0.001060094,2.499996,-0.00265023,0.0001981631,0.0001971927,0.0006579745,0.0005612726,673.0734,669.6439,0,99.51029,,
	08/25/2022 09:58:01.008,1.80024e+06,667.4533,415,6,-0.001060068,2.499977,-0.00265015,0.0001975624,0.0001965026,0.0006559672,0.000559291,670.964,667.36,0,99.46354,,
	08/25/2022 10:42:30.529,1.80291e+06,665.2912,417,6,-0.001059941,2.49999,-0.00264984,0.0001967758,0.0001958629,0.0006533481,0.0005574551,668.3669,665.1934,0,99.53606,,
	08/25/2022 11:26:51.838,1.80558e+06,662.9085,419,6,-0.001059934,2.499987,-0.00264982,0.0001962078,0.0001951404,0.0006514519,0.0005553641,666.3317,662.7883,0,99.45599,,
	08/25/2022 12:11:09.477,1808232.664,664.0455,421,6,-0.001059936,2.499998,-0.00264984,0.0001958513,0.0001954716,0.0006503121,0.000556302,665.119,663.9145,0,99.80611,,
	08/25/2022 12:55:30.268,1.81089e+06,661.7668,423,6,-0.001059876,2.499954,-0.00264964,0.0001959705,0.0001947985,0.0006506643,0.0005544008,665.5188,661.6375,0,99.40195,,
	08/25/2022 13:39:33.515,1.81354e+06,658.3243,425,6,-0.001059907,2.499998,-0.00264977,0.0001948053,0.0001937824,0.0006467954,0.0005514661,661.5578,658.1994,0,99.47489,,
	08/25/2022 14:23:26.503,1.81617e+06,656.1838,427,6,-0.001059888,2.49995,-0.00264967,0.0001941317,0.0001931554,0.0006445582,0.000549662,659.2643,656.0593,0,99.49709,,
	08/25/2022 15:07:14.075,1.8188e+06,655.039,429,6,-0.001059907,2.499945,-0.00264971,0.0001938378,0.0001928314,0.0006435753,0.0005487421,658.2848,654.9462,0,99.48081,,
	08/25/2022 15:50:53.084,1.82142e+06,652.2492,431,6,-0.001059955,2.499987,-0.00264987,0.0001930708,0.0001920097,0.0006410161,0.0005463809,655.681,652.1534,0,99.4504,,
	08/25/2022 16:34:18.971,1.82402e+06,649.0236,433,6,-0.001059897,2.49999,-0.00264973,0.0001920344,0.000191054,0.0006375646,0.000543621,652.1558,648.9097,0,99.48948,,
	08/25/2022 17:17:32.439,1.82662e+06,645.8829,435,6,-0.001059934,2.499987,-0.00264982,0.0001911112,0.0001901297,0.0006344996,0.000540961,649.0243,645.7625,0,99.4864,,
	08/25/2022 18:00:35.043,1.8292e+06,643.9886,437,6,-0.001059902,2.499985,-0.00264974,0.000190411,0.0001895778,0.0006321702,0.000539373,646.6367,643.8987,0,99.56245,,
	08/25/2022 18:43:28.114,1.83177e+06,640.9423,439,6,-0.001059911,2.499983,-0.00264976,0.0001895818,0.000188675,0.0006294135,0.0005367778,643.8271,640.8375,0,99.52169,,
	08/25/2022 19:26:08.865,1.83433e+06,637.8451,441,6,-0.001059957,2.49999,-0.00264988,0.0001886934,0.0001877607,0.0006264457,0.0005341495,640.8261,637.6922,0,99.5057,,
	08/25/2022 20:08:40.108,1.83688e+06,635.9516,443,6,-0.001059971,2.499996,-0.00264992,0.0001881451,0.0001872076,0.000624622,0.0005325709,638.9548,635.8185,0,99.50175,,
	08/25/2022 20:51:01.042,1.83942e+06,632.9178,445,6,-0.00105995,2.5,-0.002649875,0.0001873749,0.0001863134,0.0006220487,0.0005299812,636.3516,632.7829,0,99.43346,,
	08/25/2022 21:33:11.748,1.84195e+06,630.3082,447,6,-0.001059982,2.49999,-0.00264994,0.000186498,0.0001855404,0.0006191342,0.0005277655,633.3747,630.1432,0,99.4865,,
	08/25/2022 22:15:13.782,1.84448e+06,628.1881,449,6,-0.001060013,2.499998,-0.00265003,0.0001858948,0.0001849419,0.0006171492,0.0005260864,631.3243,628.1003,0,99.4874,,
	08/25/2022 22:57:04.038,1.84699e+06,625.2545,451,6,-0.001059973,2.499954,-0.00264988,0.0001849944,0.0001840691,0.0006141397,0.0005235676,628.2678,625.1509,0,99.49982,,
	08/25/2022 23:38:44.858,1849488.045,623.2739,453,6,-0.001059977,2.499996,-0.00264994,0.0001843057,0.0001834845,0.0006118356,0.000521864,625.9154,623.1625,0,99.55441,,
	08/26/2022 00:20:18.135,1.85198e+06,620.965,455,6,-0.0010601,2.49999,-0.00265024,0.0001837867,0.000182828,0.00061012,0.0005199752,624.1644,620.8926,0,99.47837,,
	08/26/2022 01:01:41.779,1.85446e+06,618.8731,457,6,-0.001060052,2.499943,-0.00265007,0.0001830694,0.000182213,0.0006077305,0.0005182184,621.7681,618.8046,0,99.53223,,
	08/26/2022 01:42:56.445,1.85694e+06,616.3672,459,6,-0.001060068,2.5,-0.00265017,0.0001824446,0.0001814705,0.0006056435,0.000516083,619.6495,616.2893,0,99.46611,,
	08/26/2022 02:24:02.003,1.85941e+06,614.3119,461,6,-0.00106008,2.499979,-0.00265018,0.000181721,0.0001808687,0.0006032481,0.0005143829,617.2126,614.2315,0,99.53095,,
	08/26/2022 03:04:59.043,1.86186e+06,612.0312,463,6,-0.001060069,2.499973,-0.00265014,0.0001812282,0.0001802003,0.0006016004,0.000512443,615.5403,611.9607,0,99.4328,,
	08/26/2022 03:45:46.230,1.86431e+06,609.5432,465,6,-0.001060078,2.499983,-0.00265018,0.0001803703,0.0001794709,0.0005987536,0.00051035,612.6307,609.4672,0,99.50137,,
	08/26/2022 04:26:23.244,1.86675e+06,606.8437,467,6,-0.001060063,2.499964,-0.00265012,0.0001796288,0.0001786776,0.0005962653,0.0005080606,610.1025,606.7668,0,99.47047,,
	08/26/2022 05:06:51.708,1.86917e+06,604.9229,469,6,-0.001060114,2.499998,-0.00265028,0.0001790418,0.0001781153,0.0005943284,0.0005064618,608.0956,604.8587,0,99.48251,,
	08/26/2022 05:47:12.057,1.8716e+06,602.9946,471,6,-0.001060064,2.499994,-0.00265015,0.0001784439,0.0001775275,0.0005923588,0.0005047942,606.0238,602.9049,0,99.48646,,
	08/26/2022 06:27:23.544,1.87401e+06,600.9078,473,6,-0.001060047,2.499964,-0.00265008,0.0001777606,0.0001769143,0.0005900741,0.0005030179,603.7237,600.8333,0,99.52387,,
	08/26/2022 07:07:27.741,1.87641e+06,599.1876,475,6,-0.001060015,2.499973,-0.00265001,0.0001772953,0.000176404,0.0005885272,0.0005015764,602.1353,599.1047,0,99.49728,,
	08/26/2022 07:47:23.805,1.87881e+06,597.1165,477,6,-0.001059958,2.499994,-0.00264989,0.0001766637,0.000175795,0.000586413,0.0004998022,599.9966,597.0477,0,99.50828,,
	08/26/2022 08:27:14.484,1.8812e+06,595.7615,479,6,-0.001059964,2.499943,-0.00264985,0.0001762512,0.0001753932,0.0005850464,0.0004986813,598.5961,595.6795,0,99.51318,,
	08/26/2022 09:06:56.609,1.88358e+06,593.8723,481,6,-0.001059992,2.499983,-0.00264996,0.0001756066,0.0001748431,0.0005829054,0.0004970702,596.4205,593.8008,0,99.5652,,
	08/26/2022 09:46:32.616,1.88596e+06,592.1718,483,6,-0.00106002,2.5,-0.00265005,0.0001752223,0.0001743359,0.0005816171,0.0004956304,595.0898,592.0945,0,99.49413,,
	08/26/2022 10:26:02.736,1.88833e+06,590.7926,485,6,-0.001060077,2.499983,-0.00265017,0.0001746292,0.000173936,0.0005796529,0.0004944737,593.0663,590.6991,0,99.60303,,
	08/26/2022 11:05:26.009,1.89069e+06,588.7444,487,6,-0.00106004,2.499996,-0.0026501,0.0001743264,0.0001733401,0.0005786228,0.0004927839,592.0732,588.6725,0,99.4342,,
	08/26/2022 11:44:44.289,1.89305e+06,587.5454,489,6,-0.001059929,2.499994,-0.00264982,0.0001739835,0.0001729764,0.0005774941,0.0004917243,590.897,587.4754,0,99.42115,,
	08/26/2022 12:23:55.401,1895398.588,586.1445,491,6,-0.001059904,2.499954,-0.00264971,0.0001734124,0.0001725635,0.0005755945,0.0004905288,588.9424,586.0774,0,99.51044,,
	08/26/2022 13:03:00.478,1.89774e+06,584.55,493,6,-0.001059988,2.499996,-0.00264997,0.0001729361,0.0001720925,0.0005740024,0.0004891807,587.3256,584.474,0,99.51221,,
	08/26/2022 13:41:59.590,1.90008e+06,582.7974,495,6,-0.001059987,2.499983,-0.00264995,0.0001724561,0.0001715769,0.0005724105,0.0004877102,585.7075,582.7265,0,99.49015,,
	08/26/2022 14:20:52.862,1.90242e+06,581.9788,497,6,-0.001060029,2.499994,-0.00265007,0.0001721031,0.0001713359,0.0005712351,0.0004870125,584.5147,581.9064,0,99.5542,,
	08/26/2022 14:59:43.083,1.90475e+06,580.6743,499,6,-0.001059899,2.499966,-0.00264971,0.0001717987,0.000170942,0.0005702252,0.0004858877,583.4773,580.5885,0,99.50134,,
	08/26/2022 15:38:25.246,1.90707e+06,578.7084,501,6,-0.00105995,2.499996,-0.00264987,0.00017118,0.0001703691,0.0005681648,0.0004842497,581.3429,578.6372,0,99.52628,,
	08/26/2022 16:17:01.424,1.90938e+06,577.1473,503,6,-0.001059948,2.499998,-0.00264987,0.0001707968,0.0001699069,0.0005668911,0.0004829258,580.0338,577.082,0,99.47899,,