File: Cell-test-data/SiMP-LFP-SS10/JB4_SiMPs-LFP-BSF10-A6_Channel_37_StatisticByCycle.CSV
Date_Time                    ,Test Time (s),Step Time (s),Cycle Index,Step Index,Current (A),Voltage (V),Power (W),Charge Capacity (Ah),Discharge Capacity (Ah),Charge Energy (Wh),Discharge Energy (Wh),Charge Time (s),Discharge Time (s),V_Max_On_Cycle (V),Coulombic Efficiency (%),mAh/g
	05/16/2022 16:46:47.689,178413,59384.9,1,3,-0.0001589961,2.499993,-0.000397489,0.003348496,0.002622473,0.01104027,0.007753413,75818.64,59377.55,0,78.31794,,
	05/18/2022 00:51:18.960,293884.564,54186.9,2,3,-0.0001589911,2.499999,-0.000397478,0.002706381,0.002392852,0.0087688,0.007036656,61276.66,54180.32,0,88.41517,,
	05/19/2022 06:26:57.504,400423,50195.5,3,3,-0.0001589888,2.499995,-0.000397471,0.002488094,0.002216544,0.00802419,0.006489914,56335.8,50189.25,0,89.08603,,
	05/19/2022 09:59:00.671,413146,6010.69,4,6,-0.001060184,2.499993,-0.00265045,0.001976323,0.001769814,0.006573099,0.004964667,6711.531,6009.964,0,89.55087,,
	05/19/2022 13:13:09.924,424796,5753.18,5,6,-0.001060159,2.499991,-0.00265039,0.001735968,0.001693927,0.005776406,0.004739875,5895.263,5752.453,0,97.57824,,
	05/19/2022 16:24:12.625,436258.229,5665.72,6,6,-0.001059826,2.499999,-0.00264956,0.001706846,0.001667936,0.00567891,0.00466628,5796.236,5665.004,0,97.72033,,
	05/19/2022 19:32:41.057,447567,5590.38,7,6,-0.001059853,2.499999,-0.00264963,0.001683605,0.001645802,0.005600224,0.004603579,5717.289,5589.685,0,97.75466,,
	05/19/2022 22:38:07.007,458693,5499.79,8,6,-0.001059818,2.499999,-0.00264954,0.001656505,0.001619199,0.005510367,0.004527034,5625.396,5499.101,0,97.74789,,
	05/20/2022 01:41:49.585,469715,5454.03,9,6,-0.001060151,2.499997,-0.00265037,0.00163959,0.001605852,0.005454284,0.004491901,5567.835,5453.342,0,97.94229,,
	05/20/2022 04:43:42.810,480628,5397.13,10,6,-0.001060128,2.49999,-0.00265031,0.001624135,0.001589105,0.005401667,0.004445465,5515.369,5396.463,0,97.84318,,
	05/20/2022 07:43:29.390,491415,5334.68,11,6,-0.001059816,2.499991,-0.00264953,0.001605093,0.001570573,0.005338267,0.004393582,5451.211,5334.002,0,97.84937,,
	05/20/2022 10:41:07.698,502073,5272.19,12,6,-0.00105986,2.499988,-0.00264964,0.001585758,0.001552209,0.005273881,0.004341943,5385.403,5271.504,0,97.88431,,
	05/20/2022 13:36:29.937,512596,5205.32,13,6,-0.001060116,2.49999,-0.00265028,0.001565459,0.001532671,0.005206444,0.004286791,5316.176,5204.693,0,97.90552,,
	05/20/2022 16:30:44.142,523050,5175.95,14,6,-0.001060068,2.499997,-0.00265017,0.001554089,0.001524013,0.005168509,0.004264669,5277.56,5175.298,0,98.0647,,
	05/20/2022 19:23:24.037,533410,5124.85,15,6,-0.001060089,2.499984,-0.00265021,0.001541339,0.001508966,0.005124974,0.004222914,5234.339,5124.206,0,97.89967,,
	05/20/2022 22:14:03.308,543649,5066.52,16,6,-0.001060116,2.499988,-0.00265028,0.001523002,0.001491804,0.005063967,0.004174449,5172.057,5065.925,0,97.95158,,
	05/21/2022 01:02:26.859,553752,4996.29,17,6,-0.001060126,2.499995,-0.00265031,0.001503701,0.001471097,0.004999874,0.004115235,5106.538,4995.652,0,97.83177,,
	05/21/2022 03:48:17.559,563703,4926.994,18,6,-0.001060153,2.499993,-0.00265038,0.00147916,0.001450695,0.004919386,0.004056521,5022.999,4926.376,0,98.0756,,
	05/21/2022 06:32:27.568,573553,4876.56,19,6,-0.001060149,2.499972,-0.00265034,0.001464341,0.001435788,0.004870168,0.004014776,4972.759,4875.967,0,98.05008,,
	05/21/2022 09:14:59.594,583305,4827.7,20,6,-0.001060165,2.499991,-0.0026504,0.001449884,0.001421469,0.004822281,0.003974848,4923.661,4827.092,0,98.04018,,
	05/21/2022 11:55:36.543,592942,4770.768,21,6,-0.001060119,2.499988,-0.00265028,0.001432761,0.001404692,0.004765603,0.003926731,4865.525,4770.189,0,98.04092,,
	05/21/2022 14:34:55.674,602501,4735.04,22,6,-0.001060164,2.499988,-0.0026504,0.00142034,0.001394084,0.004724712,0.003897893,4823.406,4734.465,0,98.15145,,
	05/21/2022 17:13:04.286,611990,4698.76,23,6,-0.001059839,2.499995,-0.00264959,0.001410267,0.001383338,0.00469069,0.003868298,4789.192,4698.179,0,98.09049,,
	05/21/2022 19:49:16.101,621361.705,4638.57,24,6,-0.00105984,2.499984,-0.00264958,0.001393577,0.001365777,0.004635077,0.003817632,4732.554,4638.016,0,98.00514,,
	05/21/2022 22:23:35.240,630621,4585.51,25,6,-0.001060149,2.499999,-0.00265037,0.001376042,0.001350057,0.004577672,0.003772913,4672.996,4584.928,0,98.11161,,
	05/22/2022 00:56:28.364,639794,4545.82,26,6,-0.001060177,2.499982,-0.00265042,0.001362441,0.001338361,0.00453248,0.003740094,4626.652,4545.259,0,98.23264,,
	05/22/2022 03:27:54.381,648880,4501.36,27,6,-0.001060158,2.499991,-0.00265039,0.001349868,0.001325262,0.004490274,0.00370338,4584.015,4500.812,0,98.17713,,
	05/22/2022 05:58:08.756,657894.36,4466.95,28,6,-0.001060149,2.499965,-0.00265034,0.001338934,0.001315148,0.004454138,0.003674937,4546.814,4466.375,0,98.22346,,
	05/22/2022 08:26:59.492,666825,4422.97,29,6,-0.001060154,2.499995,-0.00265038,0.001327245,0.001302188,0.004415262,0.003638406,4507.12,4422.396,0,98.11211,,
	05/22/2022 10:54:18.512,675664,4380.39,30,6,-0.001059843,2.499997,-0.0026496,0.001312787,0.001289524,0.004367253,0.0036026,4458.017,4379.867,0,98.22798,,
	05/22/2022 13:20:09.110,684415,4335.5,31,6,-0.001059825,2.499991,-0.00264955,0.00129994,0.001276363,0.004324615,0.003565225,4414.471,4334.955,0,98.18633,,
	05/22/2022 15:45:04.883,693110,4311.06,32,6,-0.001060159,2.499991,-0.00265039,0.001290951,0.0012693,0.004294722,0.003546347,4384.1,4310.533,0,98.32284,,
	05/22/2022 18:09:09.232,701755,4282.04,33,6,-0.00106017,2.499982,-0.00265041,0.001284374,0.001260632,0.004272118,0.00352268,4361.713,4281.496,0,98.1515,,
	05/22/2022 20:31:32.974,710299,4233.42,34,6,-0.001059855,2.499999,-0.00264964,0.001269066,0.001246374,0.004221333,0.003481345,4309.722,4232.902,0,98.2119,,
	05/22/2022 22:52:33.672,718759.276,4192.51,35,6,-0.001059862,2.499995,-0.00264965,0.001256624,0.001234315,0.004180395,0.003447091,4267.598,4191.97,0,98.22468,,
	05/23/2022 01:12:19.237,727145,4156.23,36,6,-0.00105986,2.499995,-0.00264964,0.001245232,0.001223481,0.004142816,0.003416751,4228.785,4155.714,0,98.25325,,
	05/23/2022 03:30:52.101,735458,4121.68,37,6,-0.001059882,2.499982,-0.00264969,0.001234025,0.001213309,0.00410513,0.003388271,4190.603,4121.172,0,98.3213,,
	05/23/2022 05:48:18.078,743704,4086.54,38,6,-0.001059858,2.499999,-0.00264964,0.001224676,0.001203142,0.004073924,0.003359777,4158.834,4086.056,0,98.24169,,
	05/23/2022 08:04:36.965,751883,4055.15,39,6,-0.001060175,2.499991,-0.00265043,0.001214173,0.001193854,0.004038861,0.003333327,4123.2,4054.659,0,98.32655,,
	05/23/2022 10:19:46.343,759992,4019.18,40,6,-0.001060158,2.499999,-0.00265039,0.001204293,0.001183257,0.004005954,0.003303595,4089.624,4018.677,0,98.25321,,
	05/23/2022 12:33:58.977,768045,3993.83,41,6,-0.001059827,2.49998,-0.00264955,0.001195058,0.001175816,0.003975508,0.003282878,4058.275,3993.319,0,98.38993,,
	05/23/2022 14:47:05.391,776031,3958.9,42,6,-0.001059869,2.499986,-0.00264966,0.001185827,0.001165533,0.003944668,0.003253884,4026.971,3958.407,0,98.28861,,
	05/23/2022 16:59:15.187,783961,3931.9,43,6,-0.00106013,2.499999,-0.00265032,0.001177114,0.001157584,0.003915264,0.003231743,3997.366,3931.408,0,98.34082,,
	05/23/2022 19:10:20.352,791826,3898.69,44,6,-0.001060133,2.499991,-0.00265032,0.001167854,0.00114792,0.003884326,0.003204404,3965.936,3898.213,0,98.29314,,
	05/23/2022 21:20:21.543,799627,3868.15,45,6,-0.00105984,2.499995,-0.00264959,0.001157998,0.001138798,0.003851511,0.003178856,3932.498,3867.676,0,98.34203,,
	05/23/2022 23:29:22.723,807368.327,3838.053,46,6,-0.001060151,2.49998,-0.00265036,0.00114922,0.00113004,0.003822116,0.003154186,3902.607,3837.581,0,98.33106,,
	05/24/2022 01:37:24.662,815050,3808.51,47,6,-0.001059825,2.499997,-0.00264956,0.001140478,0.001121374,0.003793171,0.003129848,3872.882,3808.011,0,98.32494,,
	05/24/2022 03:44:25.937,822672,3778.47,48,6,-0.001060125,2.499999,-0.00265031,0.001131452,0.001112534,0.003763063,0.003105018,3842.28,3777.987,0,98.32796,,
	05/24/2022 05:50:29.657,830235,3750.79,49,6,-0.001060149,2.499991,-0.00265036,0.001122659,0.0011044,0.003733727,0.003082043,3812.406,3750.321,0,98.37361,,
	05/24/2022 07:55:38.439,837744,3722.99,50,6,-0.001059855,2.499999,-0.00264964,0.001114682,0.001096124,0.003707126,0.003058884,3785.304,3722.556,0,98.33513,,
	05/24/2022 09:59:52.679,845198.283,3697.238,51,6,-0.00105986,2.499976,-0.00264962,0.001106196,0.0010886,0.003678993,0.003037686,3756.478,3696.797,0,98.40939,,
	05/24/2022 12:03:14.850,852600,3668.78,52,6,-0.001060153,2.49999,-0.00265037,0.001099236,0.00108024,0.003655708,0.0030141,3732.848,3668.341,0,98.2719,,
	05/24/2022 14:05:12.049,859918,3628.71,53,6,-0.001060135,2.499986,-0.00265032,0.001086043,0.001068463,0.003613451,0.002978945,3687.986,3628.281,0,98.38123,,
	05/24/2022 16:06:27.249,867193,3608.32,54,6,-0.001059862,2.499982,-0.00264964,0.001079622,0.001062447,0.003591668,0.002962393,3666.365,3607.882,0,98.40922,,
	05/24/2022 18:06:56.694,874422,3584.57,55,6,-0.001060144,2.499999,-0.00265036,0.001073149,0.001055468,0.003570232,0.002942796,3644.404,3584.174,0,98.35242,,
	05/24/2022 20:06:27.824,881593,3557.17,56,6,-0.001060163,2.499982,-0.00265039,0.001063979,0.00104727,0.003539464,0.002919772,3613.467,3556.716,0,98.42957,,
	05/24/2022 22:05:11.504,888717,3532.83,57,6,-0.001060173,2.499965,-0.0026504,0.001057135,0.001040209,0.003516651,0.002899967,3590.359,3532.417,0,98.39888,,
	05/25/2022 00:03:09.505,895795,3510.34,58,6,-0.001060158,2.499976,-0.00265037,0.00105045,0.001033592,0.00349435,0.002881377,3567.164,3509.89,0,98.39523,,
	05/25/2022 02:00:25.427,902831,3491,59,6,-0.001060108,2.499995,-0.00265026,0.001043732,0.001027896,0.003472035,0.00286585,3544.44,3490.538,0,98.48278,,
	05/25/2022 03:57:34.830,909860,3486.49,60,6,-0.001060161,2.499997,-0.0026504,0.001043113,0.001026576,0.003469249,0.002863439,3542.397,3486.061,0,98.41469,,
	05/25/2022 05:54:24.305,916870,3476.74,61,6,-0.001060138,2.499984,-0.00265033,0.001040117,0.001023686,0.003458743,0.00285601,3532.261,3476.299,0,98.42027,,
	05/25/2022 07:50:42.402,923848,3460.01,62,6,-0.001060107,2.49999,-0.00265026,0.001035775,0.001018766,0.003443866,0.002842598,3517.596,3459.542,0,98.35787,,
	05/25/2022 09:45:46.057,930752,3421.42,63,6,-0.001060158,2.49999,-0.00265038,0.001025253,0.001007397,0.003408571,0.002809276,3481.765,3421.018,0,98.25837,,
	05/25/2022 11:39:02.832,937548.436,3369.816,64,6,-0.001060161,2.499997,-0.0026504,0.001009011,0.0009921851,0.003355937,0.002764872,3426.497,3369.394,0,98.33244,,
	05/25/2022 13:31:29.544,944295.148,3346.43,65,6,-0.00106014,2.499999,-0.00265035,0.001001162,0.0009852216,0.003329832,0.002745464,3399.79,3345.995,0,98.40782,,
	05/25/2022 15:23:12.586,950998,3325.2,66,6,-0.001060145,2.499988,-0.00265035,0.0009945588,0.0009790864,0.003307641,0.002728235,3377.383,3324.794,0,98.44429,,
	05/25/2022 17:14:17.665,957663,3305.9,67,6,-0.001060151,2.499991,-0.00265037,0.0009890544,0.0009733308,0.003289369,0.002712186,3358.708,3305.521,0,98.41022,,
	05/25/2022 19:04:42.574,964288,3286.25,68,6,-0.001060161,2.499999,-0.0026504,0.0009830126,0.0009674384,0.003269031,0.002695755,3338.193,3285.842,0,98.41567,,
	05/25/2022 20:54:17.773,970863,3261.77,69,6,-0.001059837,2.499997,-0.00264959,0.0009755908,0.0009602422,0.003244366,0.002675303,3312.929,3261.375,0,98.42673,,
	05/25/2022 22:43:14.864,977400,3243.26,70,6,-0.001060116,2.499991,-0.00265028,0.0009698224,0.0009548567,0.003225248,0.002660255,3293.356,3242.871,0,98.45686,,
	05/26/2022 00:31:28.876,983894,3221.12,71,6,-0.001060149,2.499995,-0.00265037,0.0009636461,0.0009483081,0.003204536,0.002641771,3272.443,3220.714,0,98.40834,,
	05/26/2022 02:19:00.449,990346,3199.88,72,6,-0.001059848,2.499997,-0.00264962,0.0009573965,0.0009420057,0.003183771,0.002624064,3251.268,3199.49,0,98.39244,,
	05/26/2022 04:05:51.798,996757.402,3180.84,73,6,-0.001060177,2.499997,-0.00265044,0.0009511596,0.0009364144,0.003163009,0.0026083,3230.052,3180.438,0,98.44976,,
	05/26/2022 05:52:04.244,1.00313e+06,3160.743,74,6,-0.001059844,2.49997,-0.00264958,0.0009455929,0.0009304567,0.003144428,0.002591663,3211.228,3160.353,0,98.3993,,
	05/26/2022 07:37:37.060,1009462.664,3141.16,75,6,-0.001059888,2.49999,-0.00264971,0.0009396605,0.0009246613,0.003124711,0.002575389,3191.198,3140.765,0,98.40377,,
	05/26/2022 09:20:57.820,1.01566e+06,3071.66,76,6,-0.001059846,2.49999,-0.0026496,0.0009213124,0.0009042876,0.003062711,0.002509803,3128.641,3071.125,0,98.15211,,
	05/26/2022 11:03:37.335,1021822.939,3056.36,77,6,-0.001060168,2.499974,-0.00265039,0.0009135847,0.0008996878,0.003044655,0.002497497,3102.58,3055.847,0,98.47886,,
	05/26/2022 12:45:44.806,1027950.41,3040.43,78,6,-0.001060149,2.499993,-0.00265037,0.0009088682,0.0008950385,0.0030287,0.002484523,3086.51,3039.949,0,98.47836,,
	05/26/2022 14:27:13.744,1.03404e+06,3019.64,79,6,-0.001060153,2.499978,-0.00265036,0.0009036594,0.0008890186,0.003011187,0.002467598,3068.701,3019.142,0,98.37982,,
	05/26/2022 16:07:48.601,1.04007e+06,2994.12,80,6,-0.001060117,2.499993,-0.00265029,0.0008952152,0.0008814871,0.002983348,0.002446225,3040.211,2993.666,0,98.46651,,
	05/26/2022 17:47:56.194,1.04608e+06,2980.68,81,6,-0.001060145,2.499999,-0.00265036,0.0008911162,0.0008775778,0.002969401,0.002435524,3026.349,2980.227,0,98.48073,,
	05/26/2022 19:27:29.200,1.05205e+06,2962.87,82,6,-0.001060125,2.49999,-0.0026503,0.0008860787,0.000872233,0.00295254,0.00242073,3009.549,2962.358,0,98.43742,,
	05/26/2022 21:06:24.313,1.05799e+06,2944.36,83,6,-0.001059882,2.499982,-0.00264969,0.0008803472,0.0008666805,0.002933352,0.002405186,2990.155,2943.734,0,98.44757,,
	05/26/2022 22:44:45.581,1.06389e+06,2927.19,84,6,-0.001059823,2.499993,-0.00264955,0.0008755585,0.0008617745,0.002917332,0.002391532,2973.425,2926.735,0,98.42569,,
	05/27/2022 00:22:31.891,1.06976e+06,2911.11,85,6,-0.001059834,2.499974,-0.00264956,0.0008700776,0.0008569162,0.002899045,0.002377935,2954.663,2910.607,0,98.48734,,
	05/27/2022 01:59:46.073,1.07559e+06,2894.88,86,6,-0.001059873,2.499997,-0.00264968,0.0008653814,0.0008521604,0.002883322,0.002364608,2938.736,2894.456,0,98.47224,,
	05/27/2022 03:36:28.374,1.08139e+06,2878.71,87,6,-0.001060188,2.499995,-0.00265046,0.000860689,0.0008475236,0.00286764,0.002351651,2923.09,2878.29,0,98.47036,,
	05/27/2022 05:12:39.121,1.08716e+06,2862.95,88,6,-0.001059871,2.49999,-0.00264967,0.0008559992,0.000842746,0.002852,0.002338307,2907.286,2862.419,0,98.45173,,
	05/27/2022 06:48:16.680,1.0929e+06,2846.48,89,6,-0.00105986,2.499993,-0.00264964,0.000851112,0.0008380038,0.002835623,0.002324999,2890.517,2846.037,0,98.45988,,
	05/27/2022 08:23:20.068,1.09861e+06,2828.99,90,6,-0.00105984,2.499986,-0.00264959,0.0008462227,0.0008327544,0.00281935,0.00231026,2873.888,2828.492,0,98.40842,,
	05/27/2022 09:57:50.755,1.10428e+06,2813.39,91,6,-0.001059862,2.499982,-0.00264964,0.0008411505,0.0008282432,0.002802489,0.002297593,2856.737,2813.003,0,98.46551,,
	05/27/2022 11:31:43.626,1.10991e+06,2794.08,92,6,-0.001059825,2.499999,-0.00264956,0.000835632,0.0008224994,0.002784018,0.002281298,2838.262,2793.61,0,98.42843,,
	05/27/2022 13:05:17.203,1.11552e+06,2784.96,93,6,-0.001059855,2.499993,-0.00264963,0.0008327052,0.0008198327,0.002774349,0.002274286,2828.078,2784.483,0,98.45414,,
	05/27/2022 14:38:18.468,1.1211e+06,2769.11,94,6,-0.001060172,2.499995,-0.00265042,0.000827863,0.0008152869,0.002758036,0.002261454,2811.56,2768.752,0,98.4809,,
	05/27/2022 16:10:49.549,1.12666e+06,2752.78,95,6,-0.001060159,2.49998,-0.00265038,0.0008237571,0.0008104196,0.002744278,0.00224783,2797.827,2752.302,0,98.38089,,
	05/27/2022 17:42:42.896,1.13217e+06,2734.91,96,6,-0.00105984,2.499993,-0.00264959,0.0008178702,0.0008050922,0.002724783,0.002232854,2777.855,2734.348,0,98.43765,,
	05/27/2022 19:14:04.129,1.13765e+06,2718.59,97,6,-0.001059837,2.499988,-0.00264958,0.0008132126,0.0008002778,0.002709149,0.002219203,2762.178,2718.19,0,98.40942,,
	05/27/2022 20:44:52.641,1.1431e+06,2703.09,98,6,-0.001060175,2.499991,-0.00265043,0.0008083171,0.0007958292,0.002693084,0.002206774,2744.979,2702.663,0,98.45508,,
	05/27/2022 22:15:07.496,1.14851e+06,2686.17,99,6,-0.001059823,2.499963,-0.00264952,0.0008032504,0.0007907039,0.002676041,0.002192316,2728.17,2685.714,0,98.43804,,
	05/27/2022 23:44:51.015,1.1539e+06,2670.53,100,6,-0.00106017,2.499995,-0.00265042,0.0007986868,0.0007861886,0.002660895,0.002179601,2712.507,2670.039,0,98.43516,,
	05/28/2022 01:14:05.505,1159251.109,2656.4,101,6,-0.001059907,2.499988,-0.00264975,0.0007942427,0.0007819244,0.002646092,0.002167628,2697.505,2655.834,0,98.44905,,
	05/28/2022 02:42:51.653,1.16458e+06,2642.51,102,6,-0.001059865,2.499993,-0.00264966,0.0007900377,0.0007779377,0.002632101,0.00215638,2683.268,2642.106,0,98.46843,,
	05/28/2022 04:11:08.636,1.16987e+06,2627.46,103,6,-0.001060145,2.499978,-0.00265034,0.0007859474,0.0007735674,0.002618489,0.002144145,2669.063,2627.013,0,98.42484,,
	05/28/2022 05:38:57.371,1175142.975,2614.25,104,6,-0.001059841,2.49999,-0.00264959,0.0007814337,0.0007696222,0.002603365,0.002133032,2654.005,2613.827,0,98.48849,,
	05/28/2022 07:06:18.326,1.18038e+06,2599.082,105,6,-0.001059849,2.499993,-0.00264962,0.0007776802,0.0007651281,0.002590885,0.002120506,2641.401,2598.684,0,98.38595,,
	05/28/2022 08:33:08.302,1.18559e+06,2584.52,106,6,-0.001059811,2.499991,-0.00264952,0.0007729176,0.0007608728,0.002574976,0.002108642,2624.965,2584.087,0,98.44165,,
	05/28/2022 09:59:47.093,1.19079e+06,2579.6,107,6,-0.001059855,2.499999,-0.00264964,0.0007710194,0.0007594632,0.002568393,0.00210501,2618.739,2579.075,0,98.50119,,
	05/28/2022 11:25:56.768,1.19596e+06,2564.87,108,6,-0.001060098,2.499997,-0.00265024,0.000766914,0.000755163,0.002554619,0.002092978,2604.371,2564.426,0,98.46776,,
	05/28/2022 12:51:47.979,1.20111e+06,2554.68,109,6,-0.001060119,2.499991,-0.00265029,0.0007643375,0.0007520991,0.002546058,0.00208456,2596.022,2554.263,0,98.39881,,
	05/28/2022 14:17:16.590,1206242.194,2544.24,110,6,-0.001059844,2.499986,-0.0026496,0.0007607081,0.000748979,0.002533906,0.002075845,2583.854,2543.769,0,98.45815,,
	05/28/2022 15:42:12.773,1.21134e+06,2526.82,111,6,-0.001060163,2.499995,-0.0026504,0.0007564105,0.0007439886,0.00251951,0.002061919,2568.958,2526.459,0,98.35777,,
	05/28/2022 17:06:41.440,1.21641e+06,2514.87,112,6,-0.001060142,2.499995,-0.00265035,0.0007518268,0.0007404332,0.002504213,0.002051823,2553.354,2514.453,0,98.48455,,
	05/28/2022 18:30:46.800,1.22145e+06,2502.29,113,6,-0.001060163,2.499999,-0.00265041,0.0007486652,0.0007367001,0.002493716,0.002041245,2542.6,2501.851,0,98.4018,,
	05/28/2022 19:54:21.916,1.22647e+06,2486.58,114,6,-0.001060124,2.499995,-0.0026503,0.0007443564,0.0007320704,0.002479509,0.002028154,2528.048,2486.171,0,98.34946,,
	05/28/2022 21:17:24.341,1.23145e+06,2471.59,115,6,-0.001060153,2.499991,-0.00265037,0.000739064,0.0007275669,0.002461994,0.002015306,2510.346,2471.136,0,98.44437,,
	05/28/2022 22:40:00.075,1.23641e+06,2457.65,116,6,-0.001059816,2.499982,-0.00264952,0.0007354259,0.0007235209,0.00244991,0.002003978,2497.606,2457.226,0,98.38123,,
	05/29/2022 00:02:06.976,1.24133e+06,2443.87,117,6,-0.001059834,2.499995,-0.00264958,0.0007309236,0.0007194364,0.002434914,0.001992488,2482.531,2443.469,0,98.42841,,
	05/29/2022 01:23:47.287,1246232.891,2430.39,118,6,-0.001060167,2.499999,-0.00265042,0.000727092,0.0007155013,0.002422162,0.001981446,2469.502,2429.995,0,98.40588,,
	05/29/2022 02:45:02.277,1.25111e+06,2418.03,119,6,-0.001059848,2.499982,-0.0026496,0.0007232291,0.0007117625,0.002409278,0.001970991,2456.478,2417.594,0,98.41453,,
	05/29/2022 04:05:53.834,1255959.438,2406.86,120,6,-0.001059882,2.49998,-0.00264968,0.0007195743,0.000708458,0.002397076,0.001961756,2444.142,2406.347,0,98.45515,,
	05/29/2022 05:26:21.627,1.26079e+06,2394.651,121,6,-0.001060135,2.499969,-0.0026503,0.0007162857,0.0007049492,0.002386149,0.001951922,2432.577,2394.308,0,98.41733,,
	05/29/2022 06:46:24.632,1.26559e+06,2381.953,122,6,-0.001060168,2.499991,-0.00265041,0.00071271,0.0007012666,0.00237422,0.00194159,2420.666,2381.59,0,98.39438,,
	05/29/2022 08:06:01.952,1270367.556,2369.16,123,6,-0.001060125,2.499991,-0.0026503,0.0007088546,0.0006974685,0.002361332,0.00193098,2407.71,2368.753,0,98.39372,,
	05/29/2022 09:25:21.739,1.27513e+06,2361.46,124,6,-0.001060153,2.499986,-0.00265037,0.0007059489,0.0006952222,0.002351617,0.001924905,2397.861,2361.052,0,98.48054,,
	05/29/2022 10:44:28.471,1279874.075,2353.994,125,6,-0.001059846,2.499982,-0.0026496,0.0007043455,0.000692952,0.002345959,0.001918873,2392.302,2353.667,0,98.3824,,
	05/29/2022 12:03:16.169,1.2846e+06,2344.31,126,6,-0.001060142,2.499984,-0.00265034,0.0007016573,0.0006901459,0.002337025,0.001911027,2382.833,2343.83,0,98.35939,,
	05/29/2022 13:21:37.866,1.2893e+06,2331.9,127,6,-0.001060156,2.499984,-0.00265037,0.0006976885,0.000686523,0.002323739,0.001900844,2369.262,2331.54,0,98.39964,,
	05/29/2022 14:39:37.173,1.29398e+06,2320.62,128,6,-0.001060168,2.499999,-0.00265042,0.0006944408,0.0006831756,0.002313003,0.00189131,2358.281,2320.24,0,98.37781,,
	05/29/2022 15:57:06.431,1.29863e+06,2305.65,129,6,-0.001060149,2.499993,-0.00265037,0.0006900107,0.0006788483,0.002298259,0.001879071,2343.161,2305.254,0,98.38229,,
	05/29/2022 17:14:13.567,1.30326e+06,2294.83,130,6,-0.001060154,2.499984,-0.00265037,0.000686658,0.0006756519,0.002287169,0.0018702,2331.851,2294.433,0,98.39716,,
	05/29/2022 18:31:03.195,1.30787e+06,2286.04,131,6,-0.001060135,2.499997,-0.00265033,0.0006841136,0.0006730715,0.002278597,0.00186316,2323.135,2285.626,0,98.38592,,
	05/29/2022 19:47:37.186,1.31246e+06,2278.12,132,6,-0.001060097,2.499999,-0.00265024,0.0006818308,0.0006707578,0.002270899,0.001856766,2315.415,2277.763,0,98.37599,,
	05/29/2022 21:03:46.387,1317031.991,2265.68,133,6,-0.001060138,2.499997,-0.00265034,0.0006781985,0.000667056,0.002258807,0.001846276,2303.082,2265.343,0,98.35703,,
	05/29/2022 22:19:27.907,1321573.511,2252.33,134,6,-0.001060165,2.499988,-0.0026504,0.0006739692,0.0006631537,0.0022447,0.001835394,2288.776,2251.928,0,98.39526,,
	05/29/2022 23:34:49.291,1.32609e+06,2241.8,135,6,-0.001059868,2.499988,-0.00264966,0.0006711506,0.0006599466,0.00223534,0.001826457,2279.138,2241.403,0,98.33063,,
	05/30/2022 00:49:51.717,1.3306e+06,2232.86,136,6,-0.001060151,2.499991,-0.00265037,0.0006681418,0.0006574573,0.002225381,0.001819502,2269.047,2232.582,0,98.40086,,
	05/30/2022 02:04:29.188,1.33507e+06,2220.17,137,6,-0.001060147,2.499991,-0.00265036,0.0006645722,0.0006536433,0.002213453,0.001808815,2256.982,2219.915,0,98.35549,,
	05/30/2022 03:18:45.812,1.33953e+06,2209.65,138,6,-0.001059825,2.499995,-0.00264956,0.0006614156,0.0006505408,0.002202923,0.001800119,2246.605,2209.333,0,98.35581,,
	05/30/2022 04:32:37.739,1.34396e+06,2197.71,139,6,-0.001060135,2.499995,-0.00265033,0.0006576655,0.0006470266,0.002190426,0.001790254,2233.824,2197.356,0,98.38234,,
	05/30/2022 05:46:11.106,1.34838e+06,2188.727,140,6,-0.001059853,2.499986,-0.00264962,0.0006548166,0.0006443682,0.002180896,0.001782861,2224.195,2188.371,0,98.40437,,
	05/30/2022 06:59:25.034,1.35277e+06,2178.94,141,6,-0.001059813,2.499991,-0.00264952,0.0006520429,0.0006414978,0.002171642,0.001774875,2214.597,2178.539,0,98.38276,,
	05/30/2022 08:12:19.114,1357144.718,2169.32,142,6,-0.00105986,2.499995,-0.00264964,0.0006491024,0.000638561,0.002161861,0.001766689,2204.358,2168.963,0,98.37601,,
	05/30/2022 09:24:55.156,1.3615e+06,2160.64,143,6,-0.001059869,2.499974,-0.00264964,0.0006462513,0.0006360594,0.002152376,0.001759722,2195.02,2160.353,0,98.42293,,
	05/30/2022 10:37:13.014,1.36584e+06,2150.62,144,6,-0.001060156,2.499986,-0.00265038,0.0006438721,0.0006331891,0.002144351,0.001751794,2186.844,2150.25,0,98.34081,,
	05/30/2022 11:49:16.186,1.37016e+06,2144,145,6,-0.001060159,2.49999,-0.00265039,0.0006415421,0.000631172,0.002136691,0.001746126,2178.755,2143.591,0,98.38356,,
	05/30/2022 13:00:58.326,1374463.93,2132.63,146,6,-0.001060124,2.499995,-0.0026503,0.0006387381,0.0006279151,0.002127375,0.00173704,2169.057,2132.266,0,98.30556,,
	05/30/2022 14:12:14.231,1.37874e+06,2120.654,147,6,-0.001060161,2.499995,-0.0026504,0.0006345466,0.0006243346,0.002113308,0.001726871,2154.84,2120.278,0,98.39067,,
	05/30/2022 15:23:10.264,1.383e+06,2110.71,148,6,-0.00106014,2.499984,-0.00265033,0.0006316358,0.0006213887,0.0021037,0.001718681,2144.923,2110.293,0,98.37768,,
	05/30/2022 16:33:46.561,1.38723e+06,2100.5,149,6,-0.001060161,2.49999,-0.00265039,0.0006288521,0.0006184628,0.002094405,0.001710519,2135.477,2100.198,0,98.3479,,
	05/30/2022 17:44:03.411,1.39145e+06,2091.2,150,6,-0.001060165,2.499978,-0.00265039,0.0006258558,0.0006156865,0.002084406,0.001702738,2125.281,2090.863,0,98.37514,,
	05/30/2022 18:54:01.341,1.39565e+06,2081.64,151,6,-0.001060114,2.499982,-0.00265027,0.0006231014,0.0006128845,0.002075264,0.001694889,2115.949,2081.259,0,98.36031,,
	05/30/2022 20:03:42.808,1.39983e+06,2073.42,152,6,-0.001060142,2.499995,-0.00265035,0.0006206506,0.0006104731,0.002067051,0.001688363,2107.621,2073.051,0,98.36018,,
	05/30/2022 21:13:03.693,1.40399e+06,2062.592,153,6,-0.001060124,2.499986,-0.0026503,0.0006177325,0.0006072962,0.002057373,0.001679352,2097.89,2062.258,0,98.31055,,
	05/30/2022 22:22:08.582,1.40813e+06,2055.73,154,6,-0.001060139,2.499993,-0.00265034,0.000615107,0.000605283,0.002048534,0.001673809,2088.78,2055.423,0,98.40287,,
	05/30/2022 23:30:59.950,1.41227e+06,2048.57,155,6,-0.001060154,2.499974,-0.00265036,0.0006131926,0.0006031459,0.002042186,0.001667901,2082.361,2048.258,0,98.36157,,
	05/31/2022 00:39:33.134,1416378.738,2039.64,156,6,-0.001060151,2.499995,-0.00265037,0.0006104936,0.0006005443,0.002033181,0.001660683,2073.205,2039.354,0,98.37028,,
	05/31/2022 01:47:48.470,1420474.074,2030.66,157,6,-0.001060156,2.499995,-0.00265038,0.0006077884,0.0005978539,0.002024128,0.001653104,2064.318,2030.333,0,98.36546,,
	05/31/2022 02:55:45.616,1.42455e+06,2021.02,158,6,-0.001060158,2.499995,-0.00265039,0.0006052257,0.000595053,0.002015609,0.001645294,2055.715,2020.674,0,98.3192,,
	05/31/2022 04:03:25.309,1.42861e+06,2012.64,159,6,-0.001060159,2.499999,-0.0026504,0.0006025499,0.00059256,0.002006691,0.001638279,2046.661,2012.278,0,98.34207,,
	05/31/2022 05:10:47.372,1.43265e+06,2003.977,160,6,-0.001060135,2.49997,-0.00265031,0.0005999566,0.0005900452,0.001998105,0.001631336,2037.708,2003.687,0,98.34798,,
	05/31/2022 06:17:53.276,1.43668e+06,1995.96,161,6,-0.001060151,2.499969,-0.00265034,0.0005975235,0.0005876507,0.00199,0.001624683,2029.527,1995.595,0,98.34771,,
	05/31/2022 07:24:43.238,1.44069e+06,1988.36,162,6,-0.001060138,2.49999,-0.00265033,0.0005950851,0.0005853723,0.001981846,0.00161831,2021.286,1988.086,0,98.36783,,
	05/31/2022 08:31:17.855,1.44468e+06,1980.91,163,6,-0.001059865,2.499988,-0.00264965,0.000592762,0.0005831708,0.001974142,0.001612171,2013.374,1980.579,0,98.38195,,
	05/31/2022 09:37:36.863,1.44866e+06,1973.04,164,6,-0.001059821,2.499995,-0.00264955,0.0005905023,0.0005808147,0.001966643,0.001605659,2005.574,1972.711,0,98.35942,,
	05/31/2022 10:43:48.704,1.45263e+06,1968.72,165,6,-0.001060139,2.499995,-0.00265034,0.0005896221,0.0005796273,0.001963698,0.001602451,2002.725,1968.341,0,98.30488,,
	05/31/2022 11:49:31.825,1.45658e+06,1954.69,166,6,-0.00106011,2.499984,-0.00265026,0.0005854356,0.0005755153,0.001949646,0.00159082,1988.013,1954.354,0,98.30547,,
	05/31/2022 12:54:57.108,1.4605e+06,1946.16,167,6,-0.001060149,2.499995,-0.00265037,0.00058264,0.0005730208,0.001940518,0.001583814,1978.751,1945.869,0,98.34904,,
	05/31/2022 14:00:04.900,1.46441e+06,1937.55,168,6,-0.001059827,2.499986,-0.00264955,0.0005800846,0.000570452,0.001932002,0.001576644,1969.861,1937.153,0,98.33944,,
	05/31/2022 15:04:56.003,1.4683e+06,1929.27,169,6,-0.001060131,2.499999,-0.00265033,0.0005776013,0.0005680476,0.001923722,0.001569935,1961.42,1928.981,0,98.34597,,
	05/31/2022 16:09:36.976,1.47218e+06,1924.13,170,6,-0.001060125,2.499982,-0.00265029,0.0005761105,0.0005665115,0.00191875,0.001565776,1956.469,1923.802,0,98.33383,,
	05/31/2022 17:13:59.163,1.47604e+06,1915.324,171,6,-0.001060101,2.499997,-0.00265025,0.0005731792,0.0005639115,0.001908989,0.001558514,1946.459,1914.976,0,98.3831,,
	05/31/2022 18:18:07.827,1.47989e+06,1907.76,172,6,-0.001060112,2.499993,-0.00265027,0.0005714425,0.0005616906,0.001903192,0.001552375,1940.506,1907.412,0,98.29346,,
	05/31/2022 19:22:01.153,1.48373e+06,1900.57,173,6,-0.001060117,2.499999,-0.00265029,0.0005690454,0.0005596113,0.001895177,0.001546576,1932.376,1900.338,0,98.34212,,
	05/31/2022 20:25:40.206,1.48755e+06,1893.69,174,6,-0.001060195,2.499993,-0.00265048,0.0005668836,0.000557579,0.001888005,0.001540991,1925.04,1893.436,0,98.35864,,
	05/31/2022 21:29:11.383,1.49136e+06,1889.97,175,6,-0.001060092,2.499982,-0.00265021,0.0005656618,0.0005564528,0.001883873,0.001538026,1920.878,1889.643,0,98.372,,
	05/31/2022 22:32:32.162,1.49516e+06,1884.16,176,6,-0.001060135,2.49998,-0.00265032,0.0005642847,0.0005547518,0.001879225,0.001533303,1916.224,1883.839,0,98.31062,,
	05/31/2022 23:35:29.614,1498935.218,1872.92,177,6,-0.001060139,2.499995,-0.00265034,0.0005606844,0.0005514486,0.00186732,0.001523891,1904.164,1872.614,0,98.35275,,
	06/01/2022 00:38:11.029,1.5027e+06,1864.93,178,6,-0.00106013,2.49998,-0.0026503,0.0005582947,0.0005490606,0.001859395,0.001517269,1896.08,1864.641,0,98.34602,,
	06/01/2022 01:40:43.631,1.50645e+06,1860.5,179,6,-0.001060167,2.499995,-0.00265041,0.0005569627,0.0005478013,0.001854998,0.001513782,1891.79,1860.241,0,98.35511,,
	06/01/2022 02:43:03.617,1.51019e+06,1854.01,180,6,-0.001060131,2.499997,-0.00265032,0.0005551961,0.0005458832,0.001849091,0.001508485,1885.677,1853.729,0,98.32259,,
	06/01/2022 03:45:03.755,1.51391e+06,1844.33,181,6,-0.00106013,2.499997,-0.00265032,0.000552171,0.0005430268,0.001838827,0.001500547,1875.438,1844.011,0,98.34396,,
	06/01/2022 04:46:54.498,1.51762e+06,1839.66,182,6,-0.001060139,2.499988,-0.00265033,0.0005507944,0.0005416499,0.001834449,0.001496648,1870.712,1839.361,0,98.33978,,
	06/01/2022 05:48:27.583,1521313.187,1830.68,183,6,-0.001059855,2.499997,-0.00264963,0.0005482666,0.0005389892,0.001825941,0.001489383,1862.079,1830.301,0,98.30787,,
	06/01/2022 06:49:49.422,1.525e+06,1825.74,184,6,-0.001060122,2.499976,-0.00265028,0.0005464469,0.0005375706,0.00181993,0.001485388,1855.751,1825.491,0,98.37564,,
	06/01/2022 07:51:01.153,1.52867e+06,1820.37,185,6,-0.001059867,2.499993,-0.00264966,0.0005450157,0.0005359679,0.001815228,0.00148092,1851.001,1820.033,0,98.3399,,
	06/01/2022 08:51:59.987,1.53233e+06,1813.74,186,6,-0.001060147,2.499993,-0.00265036,0.0005431572,0.0005340219,0.001808995,0.001475514,1844.728,1813.423,0,98.31812,,
	06/01/2022 09:52:40.838,1535966.442,1805.375,187,6,-0.001060128,2.499999,-0.00265032,0.0005403913,0.0005315606,0.00179977,0.001468694,1835.131,1805.082,0,98.36588,,
	06/01/2022 10:53:17.067,1.5396e+06,1802.81,188,6,-0.001060153,2.499999,-0.00265038,0.0005397639,0.000530777,0.00179781,0.001466894,1833.048,1802.424,0,98.33504,,
	06/01/2022 11:53:40.833,1.54323e+06,1796.97,189,6,-0.001060142,2.499999,-0.00265035,0.0005378296,0.0005290789,0.001790839,0.001462577,1826.366,1796.666,0,98.37295,,
	06/01/2022 12:54:03.924,1.54685e+06,1797.21,190,6,-0.001060138,2.499982,-0.00265033,0.0005375899,0.0005291555,0.001789654,0.00146319,1825.562,1796.917,0,98.43106,,
	06/01/2022 13:54:18.519,1.55046e+06,1791.36,191,6,-0.001060126,2.499999,-0.00265031,0.000536789,0.0005274186,0.001786773,0.001458535,1822.856,1791.037,0,98.25437,,
	06/01/2022 14:54:12.100,1.55406e+06,1781.62,192,6,-0.001060054,2.499986,-0.00265012,0.0005334785,0.0005245565,0.001775714,0.00145047,1811.585,1781.313,0,98.32758,,
	06/01/2022 15:53:49.826,1.55764e+06,1773.51,193,6,-0.001060082,2.499995,-0.0026502,0.0005311763,0.0005221652,0.001768081,0.001443811,1803.855,1773.185,0,98.30357,,
	06/01/2022 16:53:17.203,1.5612e+06,1769.07,194,6,-0.001060124,2.499995,-0.0026503,0.0005294345,0.0005208793,0.001762278,0.001440294,1797.939,1768.82,0,98.38409,,
	06/01/2022 17:52:37.662,1.56476e+06,1765.348,195,6,-0.001060112,2.499999,-0.00265028,0.0005284915,0.0005197545,0.001759064,0.001437322,1794.67,1765.007,0,98.34681,,
	06/01/2022 18:51:45.897,1.56831e+06,1758.883,196,6,-0.001060142,2.499995,-0.00265035,0.0005268278,0.0005178764,0.001753469,0.001432123,1789.032,1758.637,0,98.30089,,
	06/01/2022 19:50:36.626,1571842.23,1750.267,197,6,-0.001060116,2.499982,-0.00265027,0.0005242126,0.0005153442,0.001744787,0.001425021,1780.151,1750.029,0,98.30824,,
	06/01/2022 20:49:14.138,1.57536e+06,1744.33,198,6,-0.001060092,2.499993,-0.00265022,0.0005220647,0.000513572,0.001737629,0.001420094,1772.85,1744.029,0,98.37323,,
	06/01/2022 21:47:41.731,1.57887e+06,1739.06,199,6,-0.001060089,2.499993,-0.00265022,0.0005206749,0.0005120197,0.001732958,0.001415958,1768.164,1738.732,0,98.3377,,
	06/01/2022 22:46:04.838,1582370.442,1736.61,200,6,-0.001060112,2.499991,-0.00265027,0.0005200821,0.0005113089,0.001730858,0.001414136,1766.149,1736.315,0,98.31311,,