File: Cell-test-data/SiMP-LFP-SF3/JB1_SiMP-LFP-SF3_03C_Channel_85_StatisticByStep.CSV
Date_Time                    ,Test Time (s),Step Time (s),Cycle Index,Step Index,Current (A),Voltage (V),Power (W),Charge Capacity (Ah),Discharge Capacity (Ah),Charge Energy (Wh),Discharge Energy (Wh),Charge Time (s),Discharge Time (s),V_Max_On_Cycle (V),Coulombic Efficiency (%),mAh/g
	07/20/2022 02:34:26.379,43200,43200,1.00,1.00,0,0.2438545,0,0,0,0,0,0,0,0,0,,
	07/21/2022 15:44:59.050,177033,59102,1.00,3.00,-0.0001590069,2.499996,-0.000397517,0.003300268,0.002610089,0.01089125,0.007747169,74721.15,59094.72,0,79.08719,,
	07/22/2022 23:33:44.093,291558,54739.7,2.00,3.00,-0.0001590049,2.499994,-0.000397511,0.002640298,0.002417474,0.008534665,0.00716084,59777.87,54732.59,0,91.56065,,
	07/24/2022 04:47:49.458,396803,50020,3.00,3.00,-0.0001589991,2.499973,-0.000397493,0.002438934,0.002209024,0.007863239,0.006537538,55218.28,50013.66,0,90.57335,,
	07/24/2022 08:29:50.547,410124,6246.9,4.00,6.00,-0.001059888,2.49995,-0.00264967,0.002082448,0.001839025,0.006839829,0.005355618,7073.158,6246.141,0,88.31073,,
	07/24/2022 11:51:17.510,422211,5889.32,5.00,6.00,-0.001059945,2.499992,-0.00264985,0.001824471,0.001733777,0.005982729,0.005045315,6196.887,5888.589,0,95.02902,,
	07/24/2022 15:03:46.353,433760,5642.68,6.00,6.00,-0.00105998,2.499989,-0.00264994,0.00173889,0.001661222,0.005703526,0.004833718,5905.398,5641.976,0,95.53346,,
	07/24/2022 18:09:08.429,444882,5445.75,7.00,6.00,-0.001059975,2.49999,-0.00264993,0.001671307,0.001603285,0.005482333,0.004665175,5675.541,5445.092,0,95.93005,,
	07/24/2022 21:07:25.959,455580,5238.69,8.00,6.00,-0.001059932,2.499992,-0.00264982,0.00160721,0.001542241,0.005273545,0.004482266,5458.139,5238.028,0,95.95762,,
	07/24/2022 23:59:23.174,465897,5062.76,9.00,6.00,-0.001059936,2.499975,-0.00264981,0.001546777,0.001490431,0.005078639,0.004328256,5253.746,5062.094,0,96.35726,,
	07/25/2022 02:45:36.192,475870,4894.26,10.00,6.00,-0.001059915,2.499996,-0.00264978,0.001495043,0.001440838,0.004910338,0.004180596,5078.092,4893.679,0,96.37434,,
	07/25/2022 05:26:27.233,485521,4739.89,11.00,6.00,-0.00105991,2.499933,-0.0026497,0.001445716,0.001395344,0.004750148,0.004044561,4910.485,4739.282,0,96.51579,,
	07/25/2022 08:02:13.617,494867,4590.54,12.00,6.00,-0.001059927,2.499996,-0.00264981,0.001399972,0.001351393,0.004601604,0.00391306,4755.168,4589.979,0,96.53001,,
	07/25/2022 10:33:11.699,503925,4448.9,13.00,6.00,-0.001059979,2.499922,-0.00264986,0.001356851,0.001309734,0.004461692,0.00378817,4608.57,4448.373,0,96.52753,,
	07/25/2022 12:59:18.657,512692,4305.2,14.00,6.00,-0.001059956,2.49995,-0.00264984,0.001313434,0.0012674,0.004321191,0.003660049,4461.115,4304.676,0,96.49518,,
	07/25/2022 15:20:58.403,521192,4173.54,15.00,6.00,-0.00105994,2.49999,-0.00264984,0.001273666,0.001228683,0.004192174,0.003545181,4325.611,4173.011,0,96.46822,,
	07/25/2022 17:38:07.850,529421,4036.5,16.00,6.00,-0.001059936,2.49996,-0.0026498,0.001234347,0.001188359,0.004063808,0.003423828,4192.395,4036.025,0,96.27428,,
	07/25/2022 19:50:24.847,537358,3887.88,17.00,6.00,-0.001059979,2.499931,-0.00264987,0.001192042,0.001144567,0.003926983,0.003291002,4048.575,3887.379,0,96.01729,,
	07/25/2022 21:57:32.566,544986,3732.7,18.00,6.00,-0.001059917,2.499996,-0.00264979,0.00114661,0.001098897,0.003781215,0.003153253,3894.467,3732.228,0,95.83883,,
	07/25/2022 23:59:43.918,552318,3585.76,19.00,6.00,-0.00105998,2.49988,-0.00264982,0.001102604,0.001055607,0.003639126,0.003023806,3745.059,3585.313,0,95.73757,,
	07/26/2022 01:56:53.832,559347,3431.09,20.00,6.00,-0.001059929,2.499987,-0.00264981,0.001059425,0.001010102,0.003499346,0.002888443,3598.346,3430.686,0,95.34438,,
	07/26/2022 03:48:51.864,566065,3274.7,21.00,6.00,-0.001059941,2.499916,-0.00264976,0.001013638,0.0009640314,0.003350787,0.002752159,3442.851,3274.29,0,95.10613,,
	07/26/2022 05:35:34.954,572469,3116.35,22.00,6.00,-0.00105992,2.499975,-0.00264977,0.0009675277,0.0009174193,0.003200566,0.002614849,3286.267,3115.969,0,94.82098,,
	07/26/2022 07:17:03.106,578557,2960.04,23.00,6.00,-0.001059906,2.499998,-0.00264976,0.0009208528,0.0008713893,0.00304819,0.002480056,3127.672,2959.654,0,94.62852,,
	07/26/2022 08:53:13.290,584327,2801.2,24.00,6.00,-0.001059935,2.499981,-0.00264982,0.0008740033,0.000824642,0.002894756,0.002343509,2968.571,2800.865,0,94.35226,,
	07/26/2022 10:24:13.219,589787,2648.34,25.00,6.00,-0.001059921,2.499962,-0.00264976,0.0008276687,0.0007796355,0.002742822,0.002213122,2811.189,2647.993,0,94.19657,,
	07/26/2022 11:50:11.238,594945,2498.5,26.00,6.00,-0.001059982,2.499912,-0.00264986,0.0007828994,0.0007355405,0.002595177,0.002086117,2659.127,2498.198,0,93.95082,,
	07/26/2022 13:11:14.506,599808,2353.34,27.00,6.00,-0.001059991,2.499998,-0.00264998,0.0007388379,0.0006928202,0.002449547,0.001963617,2509.573,2353.069,0,93.77162,,
	07/26/2022 14:27:36.069,604390,2215.77,28.00,6.00,-0.001059907,2.499872,-0.00264963,0.0006964933,0.0006523028,0.002308968,0.001848314,2365.435,2215.489,0,93.65529,,
	07/26/2022 15:39:33.391,608707,2086.51,29.00,6.00,-0.001059973,2.499989,-0.00264992,0.0006566852,0.00061425,0.00217625,0.001740628,2230.487,2086.24,0,93.53797,,
	07/26/2022 16:47:13.768,612767,1961.71,30.00,6.00,-0.001059952,2.499989,-0.00264987,0.0006179078,0.0005775378,0.002046749,0.001636664,2098.336,1961.479,0,93.46666,,
	07/26/2022 17:50:46.647,616580,1842,31.00,6.00,-0.001059931,2.499998,-0.00264983,0.0005802638,0.0005422779,0.001921448,0.001536851,1970.56,1841.773,0,93.45367,,
	07/26/2022 18:50:25.324,620159,1728.4,32.00,6.00,-0.001059915,2.49995,-0.00264973,0.0005446548,0.0005088288,0.001802848,0.001442048,1849.982,1728.193,0,93.42226,,
	07/26/2022 19:46:17.281,623511,1619.58,33.00,6.00,-0.001059979,2.499981,-0.00264993,0.0005099544,0.0004768082,0.001687678,0.00135126,1732.096,1619.396,0,93.50017,,
	07/26/2022 20:38:45.293,626659,1522.94,34.00,6.00,-0.001059946,2.499983,-0.00264985,0.0004783885,0.0004483564,0.00158279,0.001270848,1624.827,1522.761,0,93.72225,,
	07/26/2022 21:28:12.055,629626,1436.9,35.00,6.00,-0.001059901,2.499868,-0.00264961,0.0004503401,0.0004230051,0.00148943,0.001199406,1529.634,1436.726,0,93.93015,,
	07/26/2022 22:14:55.273,632429,1358.8,36.00,6.00,-0.001059932,2.499996,-0.00264983,0.0004251949,0.0004000259,0.001405513,0.001134729,1444.199,1358.643,0,94.0806,,
	07/26/2022 22:59:08.912,635083,1287.69,37.00,6.00,-0.001059963,2.499969,-0.00264987,0.0004020915,0.0003790914,0.001328499,0.001075686,1365.722,1287.542,0,94.27991,,
	07/26/2022 23:41:06.191,637600,1222.82,38.00,6.00,-0.001059949,2.499971,-0.00264984,0.0003810426,0.000359998,0.001258314,0.00102187,1294.244,1222.686,0,94.4771,,
	07/27/2022 00:21:00.096,639994,1163.89,39.00,6.00,-0.001059906,2.499998,-0.00264976,0.0003620729,0.0003426429,0.001195031,0.0009729385,1229.822,1163.759,0,94.63368,,
	07/27/2022 00:58:59.398,642273,1109.07,40.00,6.00,-0.001059934,2.499922,-0.00264975,0.0003444791,0.0003264986,0.001136379,0.0009273999,1170.038,1108.931,0,94.78038,,
	07/27/2022 01:35:13.295,644447,1058.64,41.00,6.00,-0.001059927,2.499926,-0.00264974,0.0003282913,0.0003116576,0.001082423,0.0008854909,1115.065,1058.527,0,94.93327,,
	07/27/2022 02:09:51.786,646525,1013.2,42.00,6.00,-0.001059941,2.49999,-0.00264984,0.0003135827,0.0002982869,0.001033452,0.0008476894,1065.11,1013.083,0,95.12225,,
	07/27/2022 02:43:01.375,648515,970.5395,43.00,6.00,-0.001059971,2.499996,-0.00264992,0.0002999733,0.0002857208,0.0009881207,0.0008122136,1018.865,970.429,0,95.24876,,
	07/27/2022 03:14:50.333,650424,932.2142,44.00,6.00,-0.001059968,2.499973,-0.00264989,0.0002875105,0.0002744414,0.0009466334,0.0007802868,976.5672,932.117,0,95.4544,,
	07/27/2022 03:45:23.828,652257,895.5501,45.00,6.00,-0.001059912,2.499954,-0.00264973,0.0002760963,0.0002636497,0.000908666,0.0007497279,937.7785,895.4486,0,95.49197,,
	07/27/2022 04:14:47.105,654021,862.2588,46.00,6.00,-0.001059941,2.499979,-0.00264983,0.0002652236,0.0002538428,0.0008725,0.0007219238,900.8469,862.1676,0,95.70896,,
	07/27/2022 04:43:05.979,655720,831.3073,47.00,6.00,-0.001059971,2.5,-0.00264993,0.000255374,0.0002447321,0.0008397794,0.0006960804,867.3916,831.2151,0,95.83282,,
	07/27/2022 05:10:24.728,657358,802.1869,48.00,6.00,-0.001059907,2.499992,-0.00264976,0.0002462515,0.0002361575,0.0008094635,0.0006717562,836.4042,802.1055,0,95.90093,,
	07/27/2022 05:36:46.769,658940,774.7627,49.00,6.00,-0.001059918,2.499964,-0.00264976,0.0002376298,0.0002280821,0.0007808239,0.0006488721,807.1253,774.6713,0,95.98208,,
	07/27/2022 06:02:15.553,660469,749.2307,50.00,6.00,-0.001059885,2.499956,-0.00264967,0.000229474,0.0002205669,0.0007537661,0.0006275125,779.3996,749.1475,0,96.11848,,
	07/27/2022 06:26:54.938,661949,725.5132,51.00,6.00,-0.001059922,2.499981,-0.00264978,0.0002219208,0.0002135759,0.0007287213,0.0006076267,753.7279,725.4265,0,96.23969,,
	07/27/2022 06:50:47.227,663381,702.4229,52.00,6.00,-0.001059948,2.49999,-0.00264986,0.0002148427,0.0002067864,0.0007052352,0.0005883406,729.7141,702.3316,0,96.25011,,
	07/27/2022 07:13:55.881,664770,681.2892,53.00,6.00,-0.001059876,2.499958,-0.00264965,0.000208222,0.0002005637,0.0006833238,0.0005706539,707.2268,681.2126,0,96.32205,,
	07/27/2022 07:36:22.928,666117,661.3148,54.00,6.00,-0.001059885,2.499971,-0.00264968,0.0002018548,0.0001946909,0.0006622255,0.0005539596,685.6074,661.2446,0,96.45095,,
	07/27/2022 07:58:10.904,667425,642.4316,55.00,6.00,-0.001059907,2.499977,-0.00264974,0.0001959124,0.000189129,0.0006425459,0.0005381208,665.4167,642.3639,0,96.53754,,
	07/27/2022 08:19:21.801,668695,624.3124,56.00,6.00,-0.001059902,2.499998,-0.00264975,0.0001903285,0.0001837903,0.0006240617,0.0005229419,646.4519,624.2594,0,96.5648,,
	07/27/2022 08:39:57.155,669931,607.0880,57.00,6.00,-0.001059908,2.499992,-0.00264976,0.0001849402,0.0001787223,0.0006062394,0.0005084979,628.1353,607.0253,0,96.63789,,
	07/27/2022 08:59:58.417,671132,590.4692,58.00,6.00,-0.001059888,2.499973,-0.00264969,0.0001797962,0.0001738224,0.0005892153,0.0004945609,610.6701,590.3979,0,96.67744,,
	07/27/2022 09:19:27.830,672301,575.0836,59.00,6.00,-0.001059931,2.499992,-0.00264982,0.0001749513,0.0001692965,0.0005732158,0.0004816843,594.2042,575.0229,0,96.76781,,
	07/27/2022 09:38:26.889,673441,560.3132,60.00,6.00,-0.001059899,2.499954,-0.0026497,0.0001703627,0.0001649476,0.0005580433,0.0004692814,578.6295,560.2536,0,96.82141,,
	07/27/2022 09:56:57.311,674551,546.3028,61.00,6.00,-0.001059896,2.499878,-0.00264961,0.0001660574,0.0001608222,0.0005438339,0.0004575585,563.9949,546.2445,0,96.84734,,
	07/27/2022 10:15:00.205,675634,532.9453,62.00,6.00,-0.001059918,2.499994,-0.00264979,0.000161889,0.0001568945,0.0005300537,0.00044637,549.8362,532.8875,0,96.91487,,
	07/27/2022 10:32:37.094,676691,520.2322,63.00,6.00,-0.001059938,2.499975,-0.00264982,0.0001579676,0.0001531548,0.0005171068,0.000435722,536.545,520.1826,0,96.95327,,
	07/27/2022 10:49:48.660,677722,507.9652,64.00,6.00,-0.001059961,2.499998,-0.0026499,0.0001541239,0.0001495421,0.0005044071,0.0004254114,523.4839,507.909,0,97.02715,,
	07/27/2022 11:06:36.664,678730,496.4499,65.00,6.00,-0.001059954,2.499939,-0.00264982,0.000150574,0.0001461529,0.0004927114,0.0004157621,511.4448,496.3957,0,97.06384,,
	07/27/2022 11:23:01.682,679715,485.4323,66.00,6.00,-0.00105995,2.499945,-0.00264982,0.0001470527,0.0001429096,0.0004810927,0.0004065045,499.4682,485.38,0,97.18257,,
	07/27/2022 11:39:04.933,680679,474.4468,67.00,6.00,-0.001059934,2.499968,-0.0026498,0.0001438792,0.0001396696,0.0004706175,0.0003973068,488.6929,474.3835,0,97.0742,,
	07/27/2022 11:54:46.937,681621,464.2266,68.00,6.00,-0.001059945,2.49999,-0.00264985,0.000140634,0.0001366671,0.0004599196,0.000388748,477.6718,464.1791,0,97.17928,,
	07/27/2022 12:10:08.235,682542,453.9915,69.00,6.00,-0.001059888,2.499985,-0.0026497,0.0001375504,0.0001336516,0.0004497468,0.0003801614,467.2021,453.9428,0,97.1655,,
	07/27/2022 12:25:09.380,683443,444.1681,70.00,6.00,-0.001059936,2.499958,-0.0026498,0.0001345079,0.0001307635,0.0004397262,0.0003719309,456.8701,444.1241,0,97.21624,,
	07/27/2022 12:39:51.077,684325,434.6184,71.00,6.00,-0.001059994,2.499996,-0.00264998,0.0001315929,0.000127951,0.000430127,0.0003639144,446.9685,434.5704,0,97.23244,,
	07/27/2022 12:54:14.579,685188,425.9621,72.00,6.00,-0.001059948,2.499985,-0.00264985,0.0001287956,0.0001254061,0.0004209136,0.0003566521,437.434,425.9171,0,97.36832,,
	07/27/2022 13:08:21.360,686035,417.7356,73.00,6.00,-0.00105997,2.499905,-0.00264982,0.0001262999,0.0001229871,0.0004126877,0.0003497604,428.9444,417.6928,0,97.37698,,
	07/27/2022 13:22:12.291,686866,410.0390,74.00,6.00,-0.001059994,2.49996,-0.00264994,0.0001239016,0.000120717,0.000404786,0.0003433106,420.7855,409.9963,0,97.42977,,
	07/27/2022 13:35:48.519,687682,402.8660,75.00,6.00,-0.00106001,2.499977,-0.00265,0.0001216748,0.0001186067,0.0003974409,0.0003373104,413.2655,402.8224,0,97.47843,,
	07/27/2022 13:49:10.522,688484,395.9771,76.00,6.00,-0.001059945,2.499977,-0.00264984,0.0001195383,0.0001165796,0.0003903933,0.0003315507,405.9272,395.9419,0,97.52487,,
	07/27/2022 14:02:19.027,689273,389.3707,77.00,6.00,-0.001060033,2.499895,-0.00264997,0.0001175046,0.0001146413,0.0003836815,0.0003260219,399.0397,389.341,0,97.5633,,
	07/27/2022 14:15:14.335,690048,382.8269,78.00,6.00,-0.001060019,2.499977,-0.00265002,0.0001155495,0.0001127089,0.0003772332,0.0003205312,392.3829,382.7929,0,97.5416,,
	07/27/2022 14:27:56.738,690810,376.5299,79.00,6.00,-0.001059971,2.499929,-0.00264985,0.0001136033,0.0001108559,0.0003708126,0.0003152652,385.7783,376.4936,0,97.5816,,
	07/27/2022 14:40:26.824,691560,370.5105,80.00,6.00,-0.001060005,2.499977,-0.00264999,0.0001117502,0.0001090834,0.0003647064,0.0003102111,379.4823,370.4718,0,97.61363,,
	07/27/2022 14:52:44.844,692298,364.4941,81.00,6.00,-0.001060024,2.499983,-0.00265004,0.0001099669,0.0001073138,0.0003588295,0.0003051786,373.4281,364.4613,0,97.58739,,
	07/27/2022 15:04:51.413,693025,358.9286,82.00,6.00,-0.001059971,2.499996,-0.00264992,0.0001082353,0.0001056735,0.0003531344,0.000300516,367.5475,358.8932,0,97.63315,,
	07/27/2022 15:16:46.733,693740,353.4938,83.00,6.00,-0.001059979,2.499994,-0.00264994,0.0001065213,0.0001040708,0.0003474775,0.0002959421,361.7264,353.4551,0,97.69947,,
	07/27/2022 15:28:31.608,694445,348.3270,84.00,6.00,-0.001059989,2.499983,-0.00264995,0.0001049667,0.0001025508,0.0003423631,0.0002916167,356.4495,348.2918,0,97.69837,,
	07/27/2022 15:40:06.299,695140,343.3580,85.00,6.00,-0.001059957,2.499979,-0.00264987,0.0001034221,0.000101086,0.000337277,0.0002874446,351.2356,343.3243,0,97.74123,,
	07/27/2022 15:51:30.725,695824,338.3002,86.00,6.00,-0.001059971,2.499994,-0.00264992,0.0001018991,9.95989E-05,0.0003322542,0.0002832074,346.0376,338.2634,0,97.74264,,
	07/27/2022 16:02:45.777,696499,333.7421,87.00,6.00,-0.001059962,2.499998,-0.0026499,0.0001004852,9.825567E-05,0.0003276054,0.0002793816,341.2253,333.7017,0,97.78122,,
	07/27/2022 16:13:51.419,697165,329.0979,88.00,6.00,-0.00105995,2.499914,-0.00264978,9.907798E-05,9.688866E-05,0.0003229664,0.0002754895,336.45,329.0652,0,97.79031,,
	07/27/2022 16:24:47.990,697822,324.5759,89.00,6.00,-0.001059954,2.499994,-0.00264988,9.77348E-05,9.55593E-05,0.0003185472,0.000271722,331.9031,324.5478,0,97.77409,,
	07/27/2022 16:35:35.753,698469,320.3211,90.00,6.00,-0.001060016,2.499994,-0.00265003,9.639272E-05,9.430599E-05,0.0003141284,0.0002681462,327.3484,320.2877,0,97.83519,,
	07/27/2022 16:46:15.028,699109,316.1370,91.00,6.00,-0.001059968,2.499977,-0.0026499,9.513211E-05,9.307444E-05,0.0003099774,0.0002646462,323.0506,316.1053,0,97.83703,,
	07/27/2022 16:56:46.010,699740,312.0920,92.00,6.00,-0.001059987,2.499975,-0.00264994,9.38818E-05,9.188423E-05,0.0003058638,0.0002612475,318.8078,312.0662,0,97.87226,,
	07/27/2022 17:07:09.084,700363,308.2695,93.00,6.00,-0.001059991,2.499956,-0.00264993,9.267693E-05,9.075612E-05,0.0003018976,0.0002580284,314.7156,308.2368,0,97.92741,,
	07/27/2022 17:17:24.392,700978,304.3105,94.00,6.00,-0.00106,2.499979,-0.00264998,9.155742E-05,8.959221E-05,0.000298214,0.0002547324,310.9131,304.2765,0,97.85358,,
	07/27/2022 17:27:32.136,701586,300.6863,95.00,6.00,-0.001059952,2.499996,-0.00264988,9.039821E-05,8.852297E-05,0.0002944046,0.0002516787,306.975,300.6575,0,97.92558,,
	07/27/2022 17:37:32.555,702186,297.0031,96.00,6.00,-0.001059989,2.499939,-0.00264991,8.932054E-05,8.743774E-05,0.0002908653,0.0002485908,303.326,296.9706,0,97.89208,,
	07/27/2022 17:47:25.807,702779,293.5286,97.00,6.00,-0.001060037,2.499922,-0.00265001,8.82353E-05,8.641839E-05,0.0002873025,0.0002456843,299.6326,293.4967,0,97.94084,,
	07/27/2022 17:57:11.919,703366,289.9698,98.00,6.00,-0.001059959,2.499954,-0.00264985,8.718098E-05,8.536821E-05,0.000283835,0.0002427003,296.051,289.9407,0,97.92069,,
	07/27/2022 18:06:50.973,703945,286.5519,99.00,6.00,-0.001059973,2.499996,-0.00264993,8.61105E-05,8.436393E-05,0.0002803197,0.0002398346,292.4179,286.5258,0,97.97171,,
	07/27/2022 18:16:23.272,704517,283.1995,100.00,6.00,-0.001059965,2.499981,-0.00264989,8.510415E-05,8.337731E-05,0.0002770182,0.0002370251,289.0148,283.1763,0,97.97091,,
	07/27/2022 18:25:48.824,705082,279.9009,101.00,6.00,-0.001059957,2.499977,-0.00264987,8.408583E-05,8.240284E-05,0.0002736721,0.0002342461,285.5662,279.8727,0,97.99849,,
	07/27/2022 18:35:07.715,705641,276.5293,102.00,6.00,-0.00105997,2.499981,-0.0026499,8.31254E-05,8.141228E-05,0.0002705269,0.000231432,282.2777,276.502,0,97.93911,,
	07/27/2022 18:44:19.967,706194,273.3409,103.00,6.00,-0.00105997,2.49999,-0.00264991,8.2111E-05,8.047574E-05,0.0002672029,0.0002287637,278.8342,273.3152,0,98.00848,,
	07/27/2022 18:53:25.922,706740,270.2557,104.00,6.00,-0.001059973,2.499979,-0.00264991,8.116633E-05,7.956537E-05,0.000264106,0.0002261626,275.6239,270.232,0,98.02754,,
	07/27/2022 19:02:25.489,707279,267.0436,105.00,6.00,-0.001059977,2.499996,-0.00264994,8.022835E-05,7.861989E-05,0.0002610307,0.0002234702,272.4408,267.019,0,97.99514,,
	07/27/2022 19:11:18.773,707812,264.0051,106.00,6.00,-0.001059935,2.499958,-0.00264979,7.927279E-05,7.77253E-05,0.0002579019,0.0002209152,269.1959,263.9805,0,98.0479,,
	07/27/2022 19:20:05.973,708340,260.9347,107.00,6.00,-0.001059998,2.499924,-0.00264991,7.838067E-05,7.682591E-05,0.0002549819,0.0002183625,266.1842,260.9204,0,98.0164,,
	07/27/2022 19:28:46.805,708860,257.7832,108.00,6.00,-0.001059993,2.499866,-0.00264984,7.743942E-05,7.58969E-05,0.0002519039,0.000215715,262.9688,257.7648,0,98.00809,,
	07/27/2022 19:37:21.469,709375,254.7700,109.00,6.00,-0.001059971,2.499979,-0.00264991,7.650942E-05,7.500804E-05,0.0002488648,0.0002131843,259.8108,254.7495,0,98.03765,,
	07/27/2022 19:45:50.017,709884,251.7508,110.00,6.00,-0.001059963,2.499996,-0.0026499,7.559988E-05,7.411984E-05,0.0002458911,0.0002106535,256.7205,251.7309,0,98.04227,,
	07/27/2022 19:54:12.388,710386,248.7227,111.00,6.00,-0.001059949,2.499992,-0.00264986,7.466594E-05,7.322674E-05,0.0002428366,0.0002080944,253.5683,248.7026,0,98.07248,,
	07/27/2022 20:02:29.014,710883,245.8024,112.00,6.00,-0.001059938,2.499998,-0.00264984,7.382136E-05,7.236763E-05,0.0002400836,0.000205653,250.7437,245.787,0,98.03075,,
	07/27/2022 20:10:39.709,711373,242.9368,113.00,6.00,-0.001059887,2.499998,-0.00264972,7.292043E-05,7.152103E-05,0.0002371452,0.0002032411,247.6807,242.9148,0,98.08092,,
	07/27/2022 20:18:44.675,711858,240.0917,114.00,6.00,-0.001059949,2.499996,-0.00264987,7.207108E-05,7.06821E-05,0.0002343736,0.0002008476,244.7959,240.0697,0,98.07277,,
	07/27/2022 20:26:43.969,712338,237.3166,115.00,6.00,-0.001059956,2.5,-0.00264989,7.121813E-05,6.986589E-05,0.0002315887,0.0001985151,241.9021,237.2979,0,98.10127,,
	07/27/2022 20:34:37.779,712811,234.5980,116.00,6.00,-0.001059968,2.499994,-0.00264991,7.04038E-05,6.906703E-05,0.0002289325,0.000196237,239.1319,234.5795,0,98.10129,,
	07/27/2022 20:42:26.068,713280,231.8251,117.00,6.00,-0.001059973,2.499979,-0.00264991,6.959336E-05,6.824956E-05,0.0002262884,0.0001939148,236.3826,231.7997,0,98.06906,,
	07/27/2022 20:50:09.403,713743,229.5819,118.00,6.00,-0.001059971,2.499998,-0.00264993,6.87958E-05,6.75897E-05,0.0002236877,0.000192027,233.6762,229.5596,0,98.24683,,
	07/27/2022 20:57:48.690,714202,227.6025,119.00,6.00,-0.00105994,2.499973,-0.00264982,6.818625E-05,6.700618E-05,0.0002216829,0.0001903658,231.6051,227.5782,0,98.26934,,
	07/27/2022 21:05:23.842,714657,225.5055,120.00,6.00,-0.00105998,2.499994,-0.00264994,6.758558E-05,6.638977E-05,0.000219713,0.0001886115,229.5636,225.4848,0,98.23068,,
	07/27/2022 21:12:54.630,715108,223.2974,121.00,6.00,-0.001059932,2.5,-0.00264983,6.695137E-05,6.573926E-05,0.0002176432,0.0001867657,227.41,223.2774,0,98.18957,,
	07/27/2022 21:20:20.680,715554,220.9466,122.00,6.00,-0.001059975,2.499966,-0.0026499,6.624927E-05,6.504841E-05,0.0002153497,0.0001847915,225.0268,220.9236,0,98.18737,,
	07/27/2022 21:27:42.497,715996,218.9257,123.00,6.00,-0.001059931,2.499962,-0.00264979,6.559867E-05,6.444925E-05,0.0002132299,0.0001830841,222.8131,218.8959,0,98.24781,,
	07/27/2022 21:35:00.279,716434,216.9180,124.00,6.00,-0.001059965,2.499973,-0.00264988,6.500202E-05,6.386057E-05,0.000211279,0.0001814072,220.7841,216.896,0,98.24399,,
	07/27/2022 21:42:14.192,716868,215.0378,125.00,6.00,-0.001059941,2.499992,-0.00264984,6.441532E-05,6.330488E-05,0.0002093641,0.0001798211,218.7949,215.0114,0,98.27612,,
	07/27/2022 21:49:24.548,717298,213.3530,126.00,6.00,-0.001059908,2.499973,-0.00264974,6.386427E-05,6.281277E-05,0.0002075585,0.0001784194,216.9237,213.3369,0,98.35355,,
	07/27/2022 21:56:31.493,717725,211.5974,127.00,6.00,-0.00105997,2.499977,-0.0026499,6.337957E-05,6.229401E-05,0.000205967,0.0001769452,215.2739,211.5791,0,98.28722,,
	07/27/2022 22:03:34.825,718148,209.8124,128.00,6.00,-0.001059907,2.499983,-0.00264975,6.283747E-05,6.177002E-05,0.0002041945,0.0001754496,213.4366,209.7986,0,98.30125,,
	07/27/2022 22:10:34.572,718568,208.0601,129.00,6.00,-0.001059965,2.499966,-0.00264988,6.229991E-05,6.12534E-05,0.0002024412,0.0001739814,211.6048,208.0436,0,98.3202,,
	07/27/2022 22:17:31.279,718985,206.6138,130.00,6.00,-0.001059935,2.499983,-0.00264982,6.183204E-05,6.082727E-05,0.0002009055,0.0001727722,210.0194,206.5975,0,98.375,,
	07/27/2022 22:24:25.019,719399,205.1100,131.00,6.00,-0.001059901,2.499985,-0.00264974,6.140157E-05,6.038532E-05,0.0001994981,0.0001715163,208.5565,205.0917,0,98.34491,,
	07/27/2022 22:31:15.366,719809,203.3845,132.00,6.00,-0.001059949,2.499918,-0.00264979,6.090978E-05,5.987877E-05,0.0001978912,0.0001700707,206.8899,203.3727,0,98.30732,,
	07/27/2022 22:38:02.597,720216,201.9399,133.00,6.00,-0.001059894,2.499964,-0.0026497,6.041872E-05,5.944985E-05,0.0001962894,0.0001688457,205.2208,201.9216,0,98.3964,,
	07/27/2022 22:44:46.826,720620,200.3908,134.00,6.00,-0.001059929,2.499996,-0.00264982,5.999383E-05,5.899628E-05,0.0001948963,0.0001675565,203.7657,200.3821,0,98.33725,,
	07/27/2022 22:51:27.859,721021,198.7802,135.00,6.00,-0.001059924,2.499964,-0.00264977,5.95259E-05,5.852263E-05,0.0001933701,0.0001662117,202.1802,198.7731,0,98.31456,,
	07/27/2022 22:58:05.963,721420,197.3810,136.00,6.00,-0.001059902,2.499973,-0.00264973,5.907622E-05,5.810807E-05,0.000191904,0.0001650364,200.6505,197.3695,0,98.3612,,
	07/27/2022 23:04:41.234,721815,195.9841,137.00,6.00,-0.001059949,2.499985,-0.00264986,5.865481E-05,5.769733E-05,0.0001905303,0.0001638632,199.2164,195.9714,0,98.36761,,
	07/27/2022 23:11:13.782,722207,194.7212,138.00,6.00,-0.001059906,2.499924,-0.00264968,5.822454E-05,5.73247E-05,0.0001891185,0.0001627993,197.7583,194.7075,0,98.45453,,
	07/27/2022 23:17:44.136,722598,193.5838,139.00,6.00,-0.001059931,2.499979,-0.00264981,5.791276E-05,5.699056E-05,0.0001880951,0.0001618559,196.6999,193.568,0,98.4076,,
	07/27/2022 23:24:11.778,722985,192.1828,140.00,6.00,-0.001059936,2.499977,-0.00264982,5.752688E-05,5.657992E-05,0.0001868309,0.0001606892,195.3879,192.1728,0,98.35389,,
	07/27/2022 23:30:36.623,723370,190.8279,141.00,6.00,-0.001059952,2.499998,-0.00264988,5.709985E-05,5.618037E-05,0.0001854435,0.0001595493,193.9449,190.8153,0,98.3897,,
	07/27/2022 23:36:59.136,723753,189.7253,142.00,6.00,-0.001059931,2.49991,-0.00264973,5.673741E-05,5.58545E-05,0.0001842579,0.0001586308,192.7125,189.7086,0,98.44386,,
	07/27/2022 23:43:19.449,724133,188.6389,143.00,6.00,-0.001059902,2.499971,-0.00264972,5.641149E-05,5.5535E-05,0.0001831847,0.0001577173,191.6034,188.626,0,98.44627,,
	07/27/2022 23:49:37.275,724511,187.3188,144.00,6.00,-0.001059882,2.499977,-0.00264968,5.606835E-05,5.514642E-05,0.0001820657,0.0001566168,190.4377,187.3053,0,98.3557,,
	07/27/2022 23:55:52.458,724886,186.0588,145.00,6.00,-0.001059941,2.499985,-0.00264984,5.566188E-05,5.477571E-05,0.0001807435,0.0001555578,189.0566,186.0453,0,98.40795,,
	07/28/2022 00:02:05.446,725259,185.0212,146.00,6.00,-0.001059897,2.499998,-0.00264974,5.531874E-05,5.447045E-05,0.0001796227,0.0001546886,187.8925,185.0047,0,98.46655,,
	07/28/2022 00:08:16.191,725630,183.9030,147.00,6.00,-0.00105989,2.499985,-0.00264971,5.499003E-05,5.414198E-05,0.0001785468,0.0001537461,186.7745,183.8922,0,98.45782,,
	07/28/2022 00:14:24.910,725999,182.8988,148.00,6.00,-0.001059949,2.499981,-0.00264985,5.468641E-05,5.384765E-05,0.0001775579,0.0001529142,185.7453,182.8901,0,98.46624,,
	07/28/2022 00:20:31.334,726365,181.7069,149.00,6.00,-0.001059962,2.499977,-0.00264988,5.4362E-05,5.349633E-05,0.0001764935,0.0001519207,184.6462,181.6965,0,98.40758,,
	07/28/2022 00:26:35.553,726729,180.6657,150.00,6.00,-0.001059943,2.499969,-0.00264982,5.402023E-05,5.318948E-05,0.0001753825,0.0001510482,183.4823,180.655,0,98.46215,,
	07/28/2022 00:32:37.850,727091,179.7465,151.00,6.00,-0.001059917,2.499943,-0.00264973,5.372493E-05,5.292016E-05,0.0001744201,0.0001502786,182.4798,179.7375,0,98.50206,,
	07/28/2022 00:38:38.154,727452,178.7002,152.00,6.00,-0.001059954,2.499994,-0.00264988,5.344555E-05,5.261286E-05,0.0001735047,0.000149411,181.5316,178.6888,0,98.44199,,
	07/28/2022 00:44:36.346,727810,177.6909,153.00,6.00,-0.001059912,2.499987,-0.00264977,5.312141E-05,5.231379E-05,0.0001724467,0.0001485598,180.4301,177.6821,0,98.47968,,
	07/28/2022 00:50:32.602,728166,176.7221,154.00,6.00,-0.001059915,2.49999,-0.00264978,5.283485E-05,5.202843E-05,0.0001715071,0.000147747,179.461,176.7093,0,98.47369,,
	07/28/2022 00:56:26.897,728521,175.7204,155.00,6.00,-0.001059913,2.499987,-0.00264977,5.255597E-05,5.173137E-05,0.0001705987,0.0001469107,178.5086,175.7058,0,98.43101,,
	07/28/2022 01:02:19.205,728873,174.7941,156.00,6.00,-0.00105991,2.49999,-0.00264976,5.224414E-05,5.145881E-05,0.0001695854,0.0001461291,177.4451,174.7798,0,98.4968,,
	07/28/2022 01:08:09.865,729223,173.9955,157.00,6.00,-0.001059918,2.499979,-0.00264977,5.199156E-05,5.122389E-05,0.0001687609,0.0001454621,176.591,173.978,0,98.52348,,
	07/28/2022 01:13:58.762,729572,173.0771,158.00,6.00,-0.001059946,2.499985,-0.00264985,5.174438E-05,5.095458E-05,0.0001679504,0.0001446973,175.7508,173.0636,0,98.47364,,
	07/28/2022 01:19:45.699,729919,172.0980,159.00,6.00,-0.00105995,2.499956,-0.00264983,5.145411E-05,5.066575E-05,0.0001670006,0.0001438751,174.7673,172.0836,0,98.46785,,
	07/28/2022 01:25:30.923,730265,171.3019,160.00,6.00,-0.001059931,2.49999,-0.00264982,5.118304E-05,5.043122E-05,0.0001661163,0.0001432079,173.8462,171.2861,0,98.53111,,
	07/28/2022 01:31:14.538,730608,170.4659,161.00,6.00,-0.001059949,2.499929,-0.0026498,5.095592E-05,5.018516E-05,0.0001653751,0.0001425141,173.0738,170.453,0,98.48738,,
	07/28/2022 01:36:56.340,730950,169.5773,162.00,6.00,-0.001059932,2.499985,-0.00264981,5.068605E-05,4.992411E-05,0.0001644945,0.0001417708,172.156,169.5671,0,98.49676,,
	07/28/2022 01:42:36.506,731290,168.7541,163.00,6.00,-0.001059892,2.499981,-0.00264971,5.04472E-05,4.96803E-05,0.0001637181,0.000141081,171.3409,168.7418,0,98.4798,,
	07/28/2022 01:48:14.910,731629,167.8765,164.00,6.00,-0.001059949,2.499981,-0.00264985,5.018622E-05,4.942372E-05,0.0001628656,0.0001403544,170.4587,167.8642,0,98.48064,,
	07/28/2022 01:53:51.643,731965,167.0806,165.00,6.00,-0.001059885,2.499996,-0.00264971,4.992801E-05,4.918897E-05,0.0001620249,0.0001396891,169.5828,167.0717,0,98.5198,,
	07/28/2022 01:59:26.824,732300,166.3277,166.00,6.00,-0.001059912,2.499968,-0.00264975,4.969431E-05,4.896663E-05,0.0001612618,0.0001390495,168.7853,166.3146,0,98.5357,,
	07/28/2022 02:05:00.395,732634,165.4981,167.00,6.00,-0.001059961,2.499975,-0.00264988,4.946086E-05,4.872359E-05,0.0001605007,0.00013836,167.9978,165.4858,0,98.50938,,
	07/28/2022 02:10:32.447,732966,164.7955,168.00,6.00,-0.001059975,2.499981,-0.00264992,4.922258E-05,4.851885E-05,0.0001597215,0.0001377736,167.1897,164.788,0,98.57031,,
	07/28/2022 02:16:03.059,733297,164.0218,169.00,6.00,-0.001059952,2.499975,-0.00264985,4.902565E-05,4.828937E-05,0.0001590809,0.0001371302,166.5212,164.0092,0,98.49817,,
	07/28/2022 02:21:32.132,733626,163.3210,170.00,6.00,-0.001059938,2.499994,-0.00264984,4.877777E-05,4.808545E-05,0.0001582719,0.0001365455,165.6806,163.3133,0,98.58067,,
	07/28/2022 02:26:59.726,733953,162.5610,171.00,6.00,-0.001059936,2.499987,-0.00264983,4.856716E-05,4.786E-05,0.0001575826,0.0001359045,164.9669,162.5504,0,98.54397,,
	07/28/2022 02:32:26.054,734280,161.9490,172.00,6.00,-0.001059975,2.499825,-0.00264975,4.837409E-05,4.767976E-05,0.0001569581,0.0001353952,164.3083,161.9398,0,98.56467,,
	07/28/2022 02:37:50.967,734605,161.2278,173.00,6.00,-0.001059922,2.499985,-0.00264979,4.817129E-05,4.746761E-05,0.0001562927,0.0001347942,163.6167,161.2191,0,98.53922,,
	07/28/2022 02:43:14.463,734928,160.5331,174.00,6.00,-0.001059927,2.499962,-0.00264978,4.795711E-05,4.72627E-05,0.0001555941,0.0001342115,162.8918,160.5232,0,98.55202,,
	07/28/2022 02:48:36.564,735250,159.8390,175.00,6.00,-0.001059921,2.499952,-0.00264975,4.775242E-05,4.705762E-05,0.0001549264,0.0001336258,162.1934,159.829,0,98.54499,,
	07/28/2022 02:53:57.299,735571,159.1358,176.00,6.00,-0.001059946,2.499996,-0.00264986,4.755758E-05,4.685068E-05,0.0001542935,0.0001330459,161.534,159.1218,0,98.5136,,
	07/28/2022 02:59:16.515,735890,158.4317,177.00,6.00,-0.001059918,2.49999,-0.00264978,4.731792E-05,4.664036E-05,0.0001535086,0.0001324436,160.7171,158.4125,0,98.56808,,
	07/28/2022 03:04:34.511,736208,157.8435,178.00,6.00,-0.00105995,2.499996,-0.00264987,4.712849E-05,4.647047E-05,0.0001528935,0.0001319594,160.0739,157.8342,0,98.60378,,
	07/28/2022 03:09:51.246,736525,157.1714,179.00,6.00,-0.001059894,2.49996,-0.00264969,4.695852E-05,4.627013E-05,0.0001523403,0.0001313959,159.4967,157.1589,0,98.53404,,
	07/28/2022 03:15:06.728,736840,156.6085,180.00,6.00,-0.001059902,2.49996,-0.00264971,4.675521E-05,4.610408E-05,0.0001516801,0.0001309197,158.8034,156.5957,0,98.60738,,
	07/28/2022 03:20:20.917,737155,155.9077,181.00,6.00,-0.001059931,2.49999,-0.00264982,4.65817E-05,4.589989E-05,0.000151112,0.000130344,158.2155,155.8986,0,98.53633,,
	07/28/2022 03:25:33.778,737467,155.2924,182.00,6.00,-0.001059922,2.5,-0.002649805,4.637217E-05,4.571877E-05,0.0001504305,0.0001298289,157.5047,155.2802,0,98.59096,,
	07/28/2022 03:30:45.500,737779,154.7220,183.00,6.00,-0.001059921,2.499977,-0.00264978,4.62011E-05,4.555066E-05,0.000149874,0.0001293517,156.9287,154.7069,0,98.59216,,
	07/28/2022 03:35:56.049,738090,154.1450,184.00,6.00,-0.001060005,2.499992,-0.00265,4.602728E-05,4.538258E-05,0.000149306,0.0001288744,156.3354,154.1338,0,98.5993,,
	07/28/2022 03:41:05.405,738399,153.5225,185.00,6.00,-0.001059956,2.499937,-0.00264982,4.585865E-05,4.519878E-05,0.0001487585,0.0001283564,155.7636,153.5133,0,98.56107,,
	07/28/2022 03:46:13.551,738707,152.9635,186.00,6.00,-0.001059957,2.5,-0.00264989,4.566831E-05,4.503371E-05,0.0001481373,0.0001278877,155.1174,152.9535,0,98.61042,,
	07/28/2022 03:51:20.760,739014,152.5299,187.00,6.00,-0.001059956,2.499996,-0.00264989,4.551905E-05,4.490609E-05,0.000147652,0.0001275222,154.6105,152.5202,0,98.6534,,
	07/28/2022 03:56:26.845,739320,151.9196,188.00,6.00,-0.001059874,2.499992,-0.00264968,4.536954E-05,4.472596E-05,0.0001471598,0.0001270117,154.0986,151.9115,0,98.58147,,
	07/28/2022 04:01:31.799,739625,151.3836,189.00,6.00,-0.001059946,2.499968,-0.00264983,4.519426E-05,4.456784E-05,0.0001465897,0.0001265631,153.5005,151.3725,0,98.61395,,
	07/28/2022 04:06:35.800,739929,150.9499,190.00,6.00,-0.001059941,2.499968,-0.00264982,4.504057E-05,4.443818E-05,0.0001460895,0.0001261909,152.9832,150.9316,0,98.66257,,
	07/28/2022 04:11:38.681,740232,150.3114,191.00,6.00,-0.00105992,2.49996,-0.00264976,4.489627E-05,4.425227E-05,0.0001456165,0.0001256656,152.4916,150.3014,0,98.56558,,
	07/28/2022 04:16:40.410,740534,149.7691,192.00,6.00,-0.001059921,2.499945,-0.00264974,4.47179E-05,4.409092E-05,0.0001450383,0.0001252073,151.8859,149.7528,0,98.59792,,
	07/28/2022 04:21:41.046,740835,149.2100,193.00,6.00,-0.001059952,2.499981,-0.00264986,4.455961E-05,4.392938E-05,0.0001445237,0.0001247548,151.3498,149.202,0,98.58566,,
	07/28/2022 04:26:40.591,741134,148.7132,194.00,6.00,-0.001059929,2.49992,-0.00264974,4.438733E-05,4.378103E-05,0.0001439621,0.0001243292,150.7631,148.7022,0,98.63407,,
	07/28/2022 04:31:39.195,741433,148.2478,195.00,6.00,-0.001059965,2.499979,-0.00264989,4.424749E-05,4.364538E-05,0.0001435077,0.0001239411,150.2877,148.2387,0,98.63923,,
	07/28/2022 04:36:36.811,741730,147.7323,196.00,6.00,-0.001059932,2.49999,-0.00264982,4.41095E-05,4.349233E-05,0.0001430584,0.0001235126,149.8183,147.7181,0,98.60084,,
	07/28/2022 04:41:33.386,742027,147.2091,197.00,6.00,-0.001059913,2.499987,-0.00264977,4.395437E-05,4.333901E-05,0.0001425542,0.0001230786,149.2922,147.1995,0,98.6,,
	07/28/2022 04:46:28.938,742323,146.7460,198.00,6.00,-0.001059975,2.499977,-0.00264991,4.37901E-05,4.320268E-05,0.0001420189,0.0001226879,148.7345,146.7341,0,98.65855,,
	07/28/2022 04:51:23.643,742617,146.3114,199.00,6.00,-0.001059913,2.499996,-0.00264978,4.366902E-05,4.307418E-05,0.0001416254,0.0001223262,148.3258,146.2999,0,98.63784,,
	07/28/2022 04:56:17.330,742911,145.8217,200.00,6.00,-0.001059878,2.5,-0.002649695,4.351382E-05,4.292891E-05,0.0001411164,0.0001219109,147.7944,145.8077,0,98.65581,,