File: Cell-test-data/SiMP-LFP-PFOF3/JB3_SiMP-LFP-PFOF3_03C_Channel_87_StatisticByStep.CSV
Date_Time                    ,Test Time (s),Step Time (s),Cycle Index,Step Index,Current (A),Voltage (V),Power (W),Charge Capacity (Ah),Discharge Capacity (Ah),Charge Energy (Wh),Discharge Energy (Wh),Charge Time (s),Discharge Time (s),V_Max_On_Cycle (V),Coulombic Efficiency (%),mAh/g
	07/20/2022 02:34:55.182,43200,43200,1.00,1.00,0,0.2597151,0,0,0,0,0,0,0,0,0,,
	07/21/2022 16:24:43.016,179388,61900,1.00,3.00,-0.0001590118,2.499978,-0.000397526,0.003280682,0.002733512,0.01086174,0.008117339,74278,61892.22,0,83.32146,,
	07/23/2022 02:27:48.407,301973,60006.3,2.00,3.00,-0.0001590004,2.499919,-0.000397488,0.002763651,0.002649959,0.008923754,0.007840515,62571.18,59998.48,0,95.88619,,
	07/24/2022 11:31:01.597,420966,58567.6,3.00,3.00,-0.0001589983,2.4999,-0.00039748,0.002668589,0.002586346,0.008584497,0.007625184,60417.73,58560.28,0,96.91811,,
	07/24/2022 15:56:56.421,436921,7764.44,4.00,6.00,-0.001059839,2.499982,-0.00264958,0.002411474,0.002285909,0.007866343,0.006624513,8189.218,7763.471,0,94.79303,,
	07/24/2022 20:12:10.245,452235,7595.05,5.00,6.00,-0.001060073,2.49998,-0.00265016,0.0022726,0.002236188,0.007390921,0.006473386,7717.732,7594.134,0,98.3978,,
	07/25/2022 00:23:27.062,467312,7481.84,6.00,6.00,-0.001060179,2.499969,-0.00265041,0.00223592,0.002202914,0.007270828,0.006371297,7593.905,7480.877,0,98.52383,,
	07/25/2022 04:31:46.615,482211,7395.34,7.00,6.00,-0.001060069,2.499984,-0.00265016,0.002209467,0.002177438,0.00718316,0.006295095,7503.247,7394.38,0,98.55037,,
	07/25/2022 08:37:21.075,496946,7312.77,8.00,6.00,-0.00106013,2.499978,-0.0026503,0.002184835,0.002153098,0.007102233,0.006223043,7420.657,7311.852,0,98.54742,,
	07/25/2022 12:40:18.141,511523,7236,9.00,6.00,-0.001060092,2.499969,-0.0026502,0.002161124,0.00213047,0.007024188,0.006156409,7340.104,7235.047,0,98.58155,,
	07/25/2022 16:41:07.710,525973,7175.16,10.00,6.00,-0.001060186,2.49999,-0.00265045,0.002141853,0.002112629,0.006960708,0.006106575,7273.439,7174.257,0,98.63557,,
	07/25/2022 20:39:23.974,540269,7092.63,11.00,6.00,-0.001060139,2.499972,-0.00265032,0.002121008,0.002088313,0.006891143,0.006035363,7202.692,7091.638,0,98.45855,,
	07/26/2022 00:34:38.777,554384,7006.3,12.00,6.00,-0.001060091,2.499982,-0.00265021,0.002092856,0.002062886,0.006801242,0.005960168,7107.547,7005.396,0,98.56799,,
	07/26/2022 04:27:15.480,568340,6927.25,13.00,6.00,-0.001060139,2.499972,-0.00265032,0.002069396,0.002039624,0.006725224,0.005892542,7028.477,6926.37,0,98.5613,,
	07/26/2022 08:17:13.630,582138,6846.06,14.00,6.00,-0.001060055,2.499993,-0.00265013,0.002046572,0.002015722,0.006651401,0.005823568,6951.12,6845.215,0,98.49261,,
	07/26/2022 12:04:38.583,595783,6774.78,15.00,6.00,-0.00106011,2.49994,-0.00265021,0.00202238,0.001994728,0.006573493,0.005762789,6869.196,6773.885,0,98.63269,,
	07/26/2022 15:50:05.286,609310,6717.65,16.00,6.00,-0.001059854,2.499999,-0.00264963,0.002004835,0.001977887,0.006515825,0.005716679,6808.147,6716.744,0,98.65589,,
	07/26/2022 19:33:32.797,622718,6653.58,17.00,6.00,-0.001060165,2.499953,-0.00265036,0.00198855,0.001959043,0.006461408,0.005663302,6753.006,6652.71,0,98.51616,,
	07/26/2022 23:14:03.807,635949,6567.62,18.00,6.00,-0.001060138,2.4999,-0.00265024,0.001961929,0.001933765,0.006377116,0.005588569,6662.483,6566.756,0,98.56444,,
	07/27/2022 02:52:09.914,649035,6495.68,19.00,6.00,-0.001060139,2.499982,-0.00265033,0.00194027,0.001912589,0.006307096,0.005527714,6589.501,6494.858,0,98.57335,,
	07/27/2022 06:27:56.656,661981,6426.87,20.00,6.00,-0.001060071,2.499999,-0.00265018,0.001919444,0.00189227,0.006239777,0.005469501,6518.955,6426.048,0,98.58427,,
	07/27/2022 10:01:29.978,674795,6363.73,21.00,6.00,-0.001060105,2.499928,-0.00265019,0.001898697,0.001873685,0.006172771,0.005415999,6448.737,6362.909,0,98.68267,,
	07/27/2022 13:32:51.439,687476,6294.56,22.00,6.00,-0.00106012,2.499993,-0.00265029,0.001880379,0.001853332,0.006113575,0.005357598,6386.044,6293.724,0,98.56163,,
	07/27/2022 17:02:26.059,700051,6246,23.00,6.00,-0.001059828,2.499995,-0.00264956,0.001863312,0.001838686,0.006057921,0.005318506,6327.786,6245.195,0,98.67834,,
	07/27/2022 20:30:06.193,712511,6182.12,24.00,6.00,-0.001060097,2.499909,-0.00265015,0.00184839,0.001820073,0.006008097,0.00526572,6277.134,6181.373,0,98.468,,
	07/27/2022 23:54:49.280,724794,6098.44,25.00,6.00,-0.001060066,2.499932,-0.00265009,0.001820925,0.001795611,0.00592187,0.005192814,6183.755,6097.724,0,98.60981,,
	07/28/2022 03:17:19.253,736944,6032,26.00,6.00,-0.001060124,2.499974,-0.00265028,0.001801172,0.001776032,0.005858078,0.005136285,6117.145,6031.232,0,98.60428,,
	07/28/2022 06:37:39.419,748964,5968.85,27.00,6.00,-0.001060064,2.499949,-0.00265011,0.001781444,0.001757378,0.005794782,0.005082708,6050.439,5967.936,0,98.64905,,
	07/28/2022 09:55:57.666,760862,5907.23,28.00,6.00,-0.001060045,2.49998,-0.00265009,0.001763519,0.001739122,0.005736726,0.005030376,5989.956,5906.083,0,98.61656,,
	07/28/2022 13:12:16.066,772641,5849.29,29.00,6.00,-0.001060133,2.499991,-0.00265032,0.001745304,0.001722165,0.005678214,0.004981693,5928.076,5848.326,0,98.67426,,
	07/28/2022 16:26:58.264,784323,5801.73,30.00,6.00,-0.001060156,2.499988,-0.00265038,0.001731346,0.001708193,0.005632819,0.004944045,5879.478,5800.979,0,98.66273,,
	07/28/2022 19:39:50.403,795895,5741.54,31.00,6.00,-0.001059858,2.499961,-0.0026496,0.001716702,0.001690506,0.005584143,0.004893859,5829.762,5740.823,0,98.47408,,
	07/28/2022 22:50:09.376,807314,5668.88,32.00,6.00,-0.001060103,2.499993,-0.00265025,0.001693032,0.001669122,0.00550871,0.004831103,5749.239,5668.147,0,98.58772,,
	07/29/2022 01:58:27.285,818612,5609.8,33.00,6.00,-0.001060069,2.499984,-0.00265016,0.001674517,0.001651676,0.005449292,0.004781019,5687.299,5609.018,0,98.63599,,
	07/29/2022 05:04:49.226,829794,5551.61,34.00,6.00,-0.001060135,2.499963,-0.0026503,0.001657462,0.00163456,0.005394279,0.004732081,5629.493,5550.884,0,98.61826,,
	07/29/2022 08:09:09.036,840854,5488.05,35.00,6.00,-0.001060009,2.499866,-0.00264988,0.001640227,0.001615829,0.005338673,0.004678343,5570.955,5487.325,0,98.5125,,
	07/29/2022 11:11:31.504,851796,5432.4,36.00,6.00,-0.001060066,2.49999,-0.00265015,0.001621993,0.001599417,0.005279867,0.004631668,5509.287,5431.662,0,98.60809,,
	07/29/2022 14:12:06.209,862631,5382.74,37.00,6.00,-0.001059848,2.499953,-0.00264957,0.001605072,0.001584768,0.005225257,0.004590355,5451.163,5381.993,0,98.73497,,
	07/29/2022 17:11:52.926,873418,5359.39,38.00,6.00,-0.001059889,2.499982,-0.0026497,0.001597931,0.001577658,0.005200438,0.004573841,5426.554,5358.671,0,98.73128,,
	07/29/2022 20:09:52.450,884097,5297.11,39.00,6.00,-0.001060139,2.499953,-0.0026503,0.001584704,0.00155961,0.005156402,0.004521636,5381.639,5296.414,0,98.41653,,
	07/29/2022 23:05:11.766,894617,5220.43,40.00,6.00,-0.00106015,2.499986,-0.00265036,0.001560182,0.001537091,0.00507901,0.004454743,5298.113,5219.79,0,98.51992,,
	07/30/2022 01:58:13.807,904999,5154.47,41.00,6.00,-0.001060156,2.499991,-0.00265038,0.001539176,0.001517652,0.005011983,0.004397723,5226.776,5153.747,0,98.60157,,
	07/30/2022 04:49:25.931,915271,5101.9,42.00,6.00,-0.001060094,2.499965,-0.0026502,0.001522308,0.001502199,0.004957909,0.004353183,5169.527,5101.229,0,98.67908,,
	07/30/2022 07:38:48.150,925433,5044.17,43.00,6.00,-0.00106013,2.499993,-0.00265032,0.001506928,0.001485202,0.004908234,0.004304485,5117.294,5043.534,0,98.55828,,
	07/30/2022 10:26:23.859,935489,4991.63,44.00,6.00,-0.00106007,2.499993,-0.00265017,0.001490866,0.001469685,0.00485619,0.004260259,5063.342,4990.978,0,98.57931,,
	07/30/2022 13:12:17.032,945442,4944.18,45.00,6.00,-0.001060159,2.499991,-0.00265039,0.001474511,0.001455761,0.004803427,0.004219943,5008.249,4943.542,0,98.72842,,
	07/30/2022 15:57:05.099,955330,4913.23,46.00,6.00,-0.001059903,2.49997,-0.00264973,0.001464704,0.001446306,0.004771612,0.004195303,4974.096,4912.57,0,98.74388,,
	07/30/2022 18:40:40.356,965145,4871.2,47.00,6.00,-0.001060136,2.499967,-0.00265031,0.001455607,0.001434,0.00474028,0.004161226,4943.351,4870.576,0,98.51558,,
	07/30/2022 21:21:53.487,974818,4799.41,48.00,6.00,-0.001060086,2.499997,-0.00265021,0.001434986,0.001413139,0.004674317,0.00409877,4873.007,4798.781,0,98.47759,,
	07/31/2022 00:01:06.714,984372,4745.74,49.00,6.00,-0.001060151,2.499986,-0.00265036,0.001415491,0.001397326,0.00461241,0.004052892,4806.771,4745.11,0,98.71669,,
	07/31/2022 02:38:48.723,993834,4696.01,50.00,6.00,-0.001060087,2.499963,-0.00265018,0.001403034,0.001382655,0.004572317,0.004010814,4765.32,4695.348,0,98.54755,,
	07/31/2022 05:14:42.300,1.00319e+06,4643.43,51.00,6.00,-0.001060131,2.49994,-0.00265026,0.001386504,0.001367158,0.004518554,0.003966088,4709.436,4642.813,0,98.6047,,
	07/31/2022 07:49:01.436,1.01245e+06,4598.61,52.00,6.00,-0.001060073,2.499961,-0.00265014,0.001371995,0.001353974,0.004471801,0.003928314,4659.831,4597.994,0,98.68649,,
	07/31/2022 10:21:45.234,1.02161e+06,4548.53,53.00,6.00,-0.001060083,2.499955,-0.00265016,0.001358622,0.0013392,0.004428361,0.003885735,4614.59,4547.906,0,98.57044,,
	07/31/2022 12:52:56.500,1.03068e+06,4504.7,54.00,6.00,-0.00106013,2.4999,-0.00265022,0.001344303,0.001326334,0.004382026,0.003848683,4565.907,4504.118,0,98.66331,,
	07/31/2022 15:22:35.473,1.03966e+06,4460.31,55.00,6.00,-0.001060131,2.499997,-0.00265032,0.001330455,0.001313257,0.004337464,0.003811266,4518.028,4459.72,0,98.70737,,
	07/31/2022 17:50:48.088,1.04855e+06,4416.12,56.00,6.00,-0.001059859,2.499932,-0.00264958,0.001318033,0.001300119,0.004297188,0.003773816,4475.853,4415.537,0,98.64088,,
	07/31/2022 20:17:53.956,1.05738e+06,4386.6,57.00,6.00,-0.001059866,2.499995,-0.00264966,0.001307056,0.001291458,0.004261164,0.003749832,4438.642,4386.043,0,98.80663,,
	07/31/2022 22:43:41.314,1.06613e+06,4341.87,58.00,6.00,-0.001060124,2.499999,-0.00265031,0.001297082,0.001278351,0.004228256,0.003712239,4404.827,4341.292,0,98.55591,,
	08/01/2022 01:07:42.058,1.07477e+06,4291.68,59.00,6.00,-0.001060122,2.499957,-0.00265026,0.001280511,0.001263641,0.004175226,0.003668593,4348.42,4291.097,0,98.68254,,
	08/01/2022 03:30:11.901,1.08332e+06,4246.85,60.00,6.00,-0.001060083,2.499984,-0.00265019,0.001266951,0.001250424,0.004131526,0.003630544,4302.385,4246.27,0,98.69553,,
	08/01/2022 05:51:18.404,1.09178e+06,4204.21,61.00,6.00,-0.001060101,2.49994,-0.00265019,0.001254949,0.001237894,0.004092709,0.003594303,4261.639,4203.673,0,98.64098,,
	08/01/2022 08:11:04.544,1.10017e+06,4166.23,62.00,6.00,-0.001060149,2.499961,-0.00265033,0.00124246,0.001226691,0.004052139,0.00356226,4219.274,4165.667,0,98.7308,,
	08/01/2022 10:29:36.059,1.10848e+06,4128.68,63.00,6.00,-0.001059912,2.499991,-0.00264977,0.001231568,0.001215508,0.00401686,0.003529938,4182.22,4128.12,0,98.69598,,
	08/01/2022 12:46:56.731,1.11672e+06,4096.18,64.00,6.00,-0.001059836,2.499948,-0.00264953,0.001220251,0.001205807,0.003980365,0.003502403,4143.916,4095.606,0,98.81631,,
	08/01/2022 15:03:21.940,1.12491e+06,4068.91,65.00,6.00,-0.001059872,2.499927,-0.0026496,0.001211915,0.001197816,0.003952802,0.003480571,4115.711,4068.42,0,98.83668,,
	08/01/2022 17:19:07.154,1.13305e+06,4046.39,66.00,6.00,-0.001059912,2.499999,-0.00264978,0.001206743,0.001191149,0.003934879,0.003462829,4098.228,4045.823,0,98.70778,,
	08/01/2022 19:33:41.108,1.14113e+06,4010.93,67.00,6.00,-0.001059956,2.499982,-0.00264987,0.001196184,0.001180733,0.003900535,0.003432802,4062.401,4010.366,0,98.70829,,
	08/01/2022 21:47:17.352,1.14914e+06,3983.43,68.00,6.00,-0.001059912,2.499961,-0.00264974,0.001187271,0.001172662,0.003871124,0.003410494,4032.229,3982.922,0,98.76949,,
	08/01/2022 23:59:57.596,1.1571e+06,3954.23,69.00,6.00,-0.001059873,2.499993,-0.00264968,0.001179366,0.001164031,0.003845036,0.003386304,4005.4,3953.723,0,98.69968,,
	08/02/2022 02:11:31.751,1.165e+06,3922.48,70.00,6.00,-0.001059859,2.49993,-0.00264957,0.001169299,0.001154679,0.003812043,0.003359724,3971.126,3921.938,0,98.74963,,
	08/02/2022 04:22:00.838,1.17283e+06,3890.96,71.00,6.00,-0.001059868,2.499927,-0.00264959,0.001159412,0.001145417,0.003779926,0.003333053,3937.573,3890.482,0,98.79289,,
	08/02/2022 06:31:25.164,1.18059e+06,3857.31,72.00,6.00,-0.001059873,2.499965,-0.00264965,0.001150232,0.0011355,0.003749799,0.003304546,3906.424,3856.807,0,98.71925,,
	08/02/2022 08:39:36.684,1.18828e+06,3819.8,73.00,6.00,-0.001060094,2.499965,-0.0026502,0.001139842,0.001124526,0.003716052,0.003272462,3871.14,3819.306,0,98.65629,,
	08/02/2022 10:45:38.421,1.19584e+06,3755.26,74.00,6.00,-0.001060089,2.499997,-0.00265022,0.001120755,0.001105678,0.003655534,0.003214252,3805.93,3754.775,0,98.65472,,
	08/02/2022 12:49:56.125,1.2033e+06,3704.31,75.00,6.00,-0.001060057,2.499988,-0.00265013,0.001105094,0.001090668,0.003606488,0.003169515,3752.813,3703.823,0,98.69453,,
	08/02/2022 14:53:09.206,1.21069e+06,3676.55,76.00,6.00,-0.001060069,2.499974,-0.00265014,0.001094064,0.0010825,0.003570638,0.003145608,3715.981,3676.048,0,98.94307,,
	08/02/2022 16:55:15.969,1.21802e+06,3639.57,77.00,6.00,-0.001060052,2.499961,-0.00265009,0.001085396,0.001071586,0.003542555,0.003114163,3686.652,3639.072,0,98.72766,,
	08/02/2022 18:56:21.942,1.22529e+06,3613.85,78.00,6.00,-0.001060122,2.499982,-0.00265029,0.001075164,0.00106404,0.003509175,0.003092241,3651.571,3613.362,0,98.96539,,
	08/02/2022 20:56:39.272,1.2325e+06,3588.36,79.00,6.00,-0.00105995,2.499988,-0.00264986,0.001068469,0.001056546,0.003487098,0.003070892,3628.426,3587.869,0,98.88413,,
	08/02/2022 22:56:06.072,1.23967e+06,3561.19,80.00,6.00,-0.001060096,2.499858,-0.00265009,0.001061591,0.001048545,0.003464697,0.003048309,3605.074,3560.718,0,98.77107,,
	08/03/2022 00:54:29.964,1.24677e+06,3531.75,81.00,6.00,-0.001060119,2.499951,-0.00265025,0.00105175,0.001039882,0.003432798,0.00302287,3571.577,3531.276,0,98.87155,,
	08/03/2022 02:51:48.208,1.25381e+06,3499.86,82.00,6.00,-0.001060098,2.499982,-0.00265023,0.001041828,0.001030498,0.003401049,0.002994966,3537.876,3499.394,0,98.9125,,
	08/03/2022 04:48:16.141,1.2608e+06,3473.47,83.00,6.00,-0.001060122,2.499997,-0.0026503,0.001034723,0.001022714,0.003377915,0.002972429,3513.948,3473.013,0,98.83934,,
	08/03/2022 06:43:43.511,1.26773e+06,3443.58,84.00,6.00,-0.00106008,2.499852,-0.00265004,0.001025648,0.001013896,0.00334834,0.002946929,3483.297,3443.137,0,98.85424,,
	08/03/2022 08:38:26.369,1.27461e+06,3424.56,85.00,6.00,-0.001060073,2.499991,-0.00265017,0.001018094,0.001008293,0.003323655,0.002930687,3457.774,3424.105,0,99.03722,,
	08/03/2022 10:32:18.273,1.28144e+06,3396.99,86.00,6.00,-0.001060153,2.49994,-0.00265032,0.001011247,0.001000182,0.003301598,0.002907117,3434.437,3396.536,0,98.90588,,
	08/03/2022 12:25:30.704,1.28824e+06,3378.47,87.00,6.00,-0.001059852,2.499978,-0.00264961,0.00100515,0.0009946062,0.003281782,0.002892057,3413.453,3378.029,0,98.95107,,
	08/03/2022 14:18:12.326,1.295e+06,3362.78,88.00,6.00,-0.001059859,2.499969,-0.00264961,0.001000665,0.0009899453,0.00326642,0.002879272,3398.31,3362.352,0,98.92875,,
	08/03/2022 16:10:01.719,1.30171e+06,3334.78,89.00,6.00,-0.001060126,2.499907,-0.00265022,0.0009935596,0.0009818494,0.003243176,0.002855542,3374.124,3334.361,0,98.82139,,
	08/03/2022 18:00:40.193,1.30835e+06,3301.35,90.00,6.00,-0.001060052,2.499988,-0.00265012,0.0009825209,0.0009720237,0.003207831,0.002826037,3336.613,3300.904,0,98.93161,,
	08/03/2022 19:50:31.617,1.31494e+06,3278.82,91.00,6.00,-0.001060092,2.499955,-0.00265018,0.0009750944,0.0009653468,0.003183867,0.002806602,3311.932,3278.254,0,99.00034,,
	08/03/2022 21:39:33.616,1.32148e+06,3253,92.00,6.00,-0.001060126,2.499942,-0.00265025,0.000968267,0.0009577728,0.003161994,0.002784495,3288.474,3252.448,0,98.91618,,
	08/03/2022 23:28:07.448,1.32799e+06,3241.96,93.00,6.00,-0.001060111,2.499988,-0.00265026,0.0009633054,0.0009545386,0.00314547,0.002776071,3271.246,3241.465,0,99.08992,,
	08/04/2022 01:16:23.876,1.33449e+06,3231.26,94.00,6.00,-0.001059882,2.49999,-0.00264969,0.000961318,0.0009512926,0.003138211,0.002767861,3264.554,3230.689,0,98.95712,,
	08/04/2022 03:03:55.520,1.34094e+06,3208.25,95.00,6.00,-0.001060173,2.499965,-0.0026504,0.0009549017,0.000944636,0.003116901,0.002747989,3242.773,3207.804,0,98.92494,,
	08/04/2022 04:50:19.980,1.34732e+06,3175.5,96.00,6.00,-0.00106013,2.499959,-0.00265028,0.0009447866,0.0009349537,0.003084828,0.002718535,3208.358,3174.963,0,98.95925,,
	08/04/2022 06:35:49.968,1.35365e+06,3148.3,97.00,6.00,-0.001060103,2.499999,-0.00265026,0.0009367311,0.0009269104,0.003058959,0.002694774,3181.11,3147.69,0,98.9516,,
	08/04/2022 08:20:35.240,1.35994e+06,3128.33,98.00,6.00,-0.001060122,2.499984,-0.00265029,0.0009293221,0.0009210428,0.003035077,0.002677405,3156.308,3127.757,0,99.1091,,
	08/04/2022 10:04:41.931,1.36619e+06,3107.81,99.00,6.00,-0.001060156,2.499997,-0.00265039,0.00092413,0.0009150179,0.00301825,0.002659947,3138.276,3107.237,0,99.01398,,
	08/04/2022 11:48:25.152,1.37241e+06,3097.48,100.00,6.00,-0.001060103,2.499963,-0.00265022,0.0009203166,0.0009119808,0.003005494,0.002652171,3125.264,3096.978,0,99.09425,,
	08/04/2022 13:31:42.424,1.37861e+06,3083.07,101.00,6.00,-0.00106013,2.499982,-0.00265031,0.0009168709,0.0009077436,0.002993792,0.002640207,3113.597,3082.545,0,99.00452,,
	08/04/2022 15:14:18.780,1.38476e+06,3063.42,102.00,6.00,-0.001060153,2.499969,-0.00265035,0.0009106382,0.0009019581,0.00297356,0.002623154,3092.385,3062.876,0,99.04681,,
	08/04/2022 16:56:21.561,1.39089e+06,3047.72,103.00,6.00,-0.001059838,2.499892,-0.00264948,0.000905351,0.0008971997,0.002956565,0.002609619,3074.413,3047.175,0,99.09965,,
	08/04/2022 18:37:54.554,1.39698e+06,3032.15,104.00,6.00,-0.001060112,2.499921,-0.0026502,0.0009011502,0.000892588,0.002942478,0.002596175,3060.238,3031.591,0,99.04985,,
	08/04/2022 20:18:43.348,1.40303e+06,3007.93,105.00,6.00,-0.001059858,2.49998,-0.00264962,0.0008952907,0.0008855909,0.00292349,0.002575675,3040.299,3007.444,0,98.91657,,
	08/04/2022 21:58:48.362,1.40903e+06,2987.85,106.00,6.00,-0.001060144,2.499982,-0.00265034,0.0008883009,0.0008796841,0.002900826,0.002558202,3016.555,2987.312,0,99.02996,,
	08/04/2022 23:38:08.055,1.41499e+06,2965.8,107.00,6.00,-0.001060158,2.499948,-0.00265034,0.0008814418,0.0008731928,0.002878703,0.002538953,2993.317,2965.252,0,99.06414,,
	08/05/2022 01:16:48.564,1.42091e+06,2947.86,108.00,6.00,-0.001060092,2.499936,-0.00265016,0.0008751809,0.0008679192,0.00285871,0.002523189,2972.029,2947.356,0,99.17027,,
	08/05/2022 02:54:48.614,1.42679e+06,2923.92,109.00,6.00,-0.001060128,2.49994,-0.00265026,0.0008702137,0.0008608845,0.002842686,0.002502471,2955.52,2923.46,0,98.92794,,
	08/05/2022 04:32:08.718,1.43263e+06,2907.1,110.00,6.00,-0.001060111,2.499999,-0.00265028,0.0008635691,0.000855891,0.002821068,0.002487993,2932.567,2906.718,0,99.11089,,
	08/05/2022 06:08:57.749,1.43844e+06,2891.52,111.00,6.00,-0.00106015,2.499997,-0.00265037,0.0008589972,0.0008513349,0.002806252,0.002474617,2917.041,2891.162,0,99.10799,,
	08/05/2022 07:45:12.743,1.44422e+06,2874.07,112.00,6.00,-0.001059806,2.499988,-0.0026495,0.000854134,0.0008461447,0.002790353,0.002459558,2900.503,2873.684,0,99.06464,,
	08/05/2022 09:20:53.333,1.44996e+06,2857.29,113.00,6.00,-0.001060147,2.499965,-0.00265033,0.0008489322,0.000841273,0.002773452,0.002445342,2882.865,2856.934,0,99.09779,,
	08/05/2022 10:56:04.273,1.45567e+06,2843.71,114.00,6.00,-0.001059852,2.499953,-0.00264958,0.0008441989,0.0008371344,0.002757991,0.002433316,2866.794,2843.368,0,99.16316,,
	08/05/2022 12:30:59.620,1.46136e+06,2836.59,115.00,6.00,-0.001059894,2.49998,-0.00264971,0.0008416858,0.0008350195,0.002749729,0.002428064,2858.37,2836.233,0,99.20797,,
	08/05/2022 14:05:48.965,1.46705e+06,2833.62,116.00,6.00,-0.001059881,2.499974,-0.00264967,0.0008407504,0.0008341643,0.002746003,0.002426291,2855.301,2833.26,0,99.21664,,
	08/05/2022 15:40:21.712,1.47273e+06,2823.37,117.00,6.00,-0.001059969,2.499993,-0.00264992,0.0008388628,0.0008311716,0.002739501,0.00241803,2848.978,2823.027,0,99.08314,,
	08/05/2022 17:14:34.559,1.47838e+06,2815.04,118.00,6.00,-0.001059891,2.499959,-0.00264968,0.0008354328,0.0008287182,0.002728037,0.002411234,2837.387,2814.68,0,99.19628,,
	08/05/2022 18:48:26.249,1.48401e+06,2803.1,119.00,6.00,-0.001059937,2.499999,-0.00264984,0.0008327155,0.0008252019,0.002719008,0.002401332,2828.152,2802.756,0,99.09769,,
	08/05/2022 20:21:45.519,1.48961e+06,2787.05,120.00,6.00,-0.001059878,2.499988,-0.00264968,0.0008279142,0.0008204663,0.002703339,0.002387376,2811.781,2786.703,0,99.1004,,
	08/05/2022 21:54:32.855,1.49518e+06,2771.87,121.00,6.00,-0.001059903,2.499999,-0.00264976,0.0008229953,0.000815986,0.002687412,0.002373964,2795.066,2771.557,0,99.14832,,
	08/05/2022 23:26:43.867,1.50071e+06,2752.47,122.00,6.00,-0.001059836,2.49997,-0.00264956,0.0008180494,0.0008102433,0.002671455,0.002356958,2778.152,2752.087,0,99.04577,,
	08/06/2022 00:58:17.024,1.5062e+06,2735.5,123.00,6.00,-0.001060181,2.499951,-0.0026504,0.0008119023,0.0008053113,0.002651543,0.002342008,2757.25,2735.133,0,99.18819,,
	08/06/2022 02:29:11.225,1.51166e+06,2713.23,124.00,6.00,-0.00105987,2.499995,-0.00264967,0.0008070107,0.0007987478,0.002635879,0.002322654,2740.561,2712.898,0,98.9761,,
	08/06/2022 03:59:30.742,1.51708e+06,2700.35,125.00,6.00,-0.001059856,2.499978,-0.00264962,0.0008005963,0.0007950187,0.002615181,0.002311358,2718.771,2700.032,0,99.30331,,
	08/06/2022 05:29:18.200,1.52246e+06,2680.68,126.00,6.00,-0.001060119,2.499923,-0.00265022,0.0007969608,0.0007892902,0.002603512,0.002294436,2706.396,2680.365,0,99.03751,,
	08/06/2022 06:58:29.813,1.52781e+06,2663.68,127.00,6.00,-0.001059834,2.49999,-0.00264957,0.000791411,0.000784293,0.002585504,0.002279754,2687.508,2663.334,0,99.10059,,
	08/06/2022 08:27:09.787,1.53313e+06,2649.53,128.00,6.00,-0.001059825,2.499991,-0.00264955,0.0007862746,0.0007801126,0.002568865,0.00226716,2670.065,2649.231,0,99.21631,,
	08/06/2022 09:55:19.801,1.53842e+06,2634.87,129.00,6.00,-0.001060128,2.499995,-0.00265031,0.0007817721,0.0007758089,0.002554446,0.00225431,2654.779,2634.551,0,99.23722,,
	08/06/2022 11:23:07.073,1.54369e+06,2623.48,130.00,6.00,-0.001060164,2.499961,-0.00265037,0.0007784209,0.0007723745,0.002543628,0.002244421,2643.398,2623.136,0,99.22325,,
	08/06/2022 12:50:35.267,1.54894e+06,2613.05,131.00,6.00,-0.00105987,2.499984,-0.00264966,0.0007758617,0.0007692728,0.002535139,0.002235799,2634.762,2612.692,0,99.15077,,
	08/06/2022 14:17:57.230,1.55418e+06,2613.59,132.00,6.00,-0.001059934,2.49999,-0.00264982,0.0007738252,0.0007693892,0.00252812,0.002236695,2627.963,2613.289,0,99.42674,,
	08/06/2022 15:45:18.565,1.55942e+06,2611.39,133.00,6.00,-0.001059917,2.499967,-0.00264976,0.0007742805,0.0007687258,0.002529203,0.002235572,2629.572,2611.045,0,99.2826,,
	08/06/2022 17:12:28.801,1.56465e+06,2603.3,134.00,6.00,-0.001059877,2.499902,-0.00264959,0.0007733888,0.0007663566,0.002525914,0.002229119,2626.56,2602.971,0,99.09072,,
	08/06/2022 18:39:16.148,1.56986e+06,2593.68,135.00,6.00,-0.0010599,2.499986,-0.00264974,0.0007694962,0.0007635161,0.002513211,0.002220928,2613.304,2593.375,0,99.22285,,
	08/06/2022 20:05:40.685,1.57505e+06,2581.37,136.00,6.00,-0.001059907,2.49997,-0.00264974,0.0007663824,0.000759887,0.002502896,0.002210282,2602.753,2581.044,0,99.15247,,
	08/06/2022 21:31:34.868,1.5802e+06,2566.63,137.00,6.00,-0.001059861,2.499919,-0.00264957,0.0007618049,0.0007555552,0.002488101,0.002197264,2587.17,2566.313,0,99.17962,,
	08/06/2022 22:56:52.295,1.58532e+06,2545.98,138.00,6.00,-0.001059875,2.499984,-0.00264967,0.0007570523,0.0007494724,0.002472834,0.00217918,2571.052,2545.679,0,98.99876,,
	08/07/2022 00:21:33.879,1.5904e+06,2531.22,139.00,6.00,-0.001060188,2.499988,-0.00265046,0.0007508631,0.0007451263,0.002452906,0.002166081,2549.977,2530.898,0,99.23597,,
	08/07/2022 01:45:46.687,1.59545e+06,2516.86,140.00,6.00,-0.001060147,2.499978,-0.00265034,0.0007466323,0.0007409169,0.002439304,0.002153382,2535.572,2516.558,0,99.2345,,
	08/07/2022 03:09:31.616,1.60048e+06,2502.44,141.00,6.00,-0.001059817,2.499976,-0.00264952,0.0007426584,0.0007366763,0.002426514,0.002140814,2522.1,2502.123,0,99.1945,,
	08/07/2022 04:32:49.400,1.60547e+06,2488.74,142.00,6.00,-0.001059875,2.499928,-0.00264961,0.0007387201,0.0007327081,0.002413827,0.002129181,2508.693,2488.444,0,99.18616,,
	08/07/2022 05:55:44.048,1.61045e+06,2478.94,143.00,6.00,-0.001060217,2.499911,-0.00265045,0.0007347864,0.0007297637,0.002401071,0.002120379,2495.316,2478.655,0,99.31644,,
	08/07/2022 07:18:16.522,1.6154e+06,2466.81,144.00,6.00,-0.001059863,2.49998,-0.00264964,0.0007318313,0.0007261634,0.002391438,0.002109784,2485.289,2466.49,0,99.22552,,
	08/07/2022 08:40:23.515,1.62033e+06,2453.69,145.00,6.00,-0.001059853,2.499957,-0.00264959,0.0007281834,0.0007223191,0.002379663,0.002098346,2472.93,2453.387,0,99.19466,,
	08/07/2022 10:02:04.737,1.62523e+06,2441.23,146.00,6.00,-0.001060161,2.499986,-0.00265039,0.0007242792,0.0007187257,0.002367043,0.002087731,2459.605,2440.931,0,99.23324,,
	08/07/2022 11:23:23.583,1.63011e+06,2430.58,147.00,6.00,-0.001059934,2.499991,-0.00264983,0.0007208213,0.0007154959,0.002355818,0.002078315,2447.889,2430.244,0,99.26121,,
	08/07/2022 12:44:29.336,1.63497e+06,2424.49,148.00,6.00,-0.001059861,2.499984,-0.00264964,0.000718738,0.0007137143,0.002348956,0.002073375,2440.906,2424.214,0,99.30106,,
	08/07/2022 14:05:27.051,1.63983e+06,2419.35,149.00,6.00,-0.001059877,2.499846,-0.00264953,0.0007178771,0.0007122037,0.002345781,0.002069667,2437.998,2419.064,0,99.20969,,
	08/07/2022 15:26:19.793,1.64468e+06,2419.27,150.00,6.00,-0.001059909,2.499982,-0.00264975,0.000716444,0.0007121764,0.002340771,0.002070012,2433.111,2418.939,0,99.40434,,
	08/07/2022 16:47:04.115,1.64953e+06,2413.88,151.00,6.00,-0.001059868,2.499976,-0.00264964,0.0007155647,0.0007105867,0.002337732,0.002065554,2430.081,2413.576,0,99.30432,,
	08/07/2022 18:07:29.781,1.65435e+06,2402.93,152.00,6.00,-0.00105982,2.499967,-0.00264952,0.0007132798,0.0007073788,0.002330191,0.002056182,2422.378,2402.649,0,99.17269,,
	08/07/2022 19:27:30.650,1.65916e+06,2391.48,153.00,6.00,-0.001059848,2.499967,-0.00264959,0.0007093777,0.0007040239,0.002317558,0.002046262,2409.063,2391.207,0,99.24528,,
	08/07/2022 20:47:08.873,1.66393e+06,2379.67,154.00,6.00,-0.001059894,2.499965,-0.0026497,0.000706179,0.0007005267,0.002307253,0.002035996,2398.205,2379.406,0,99.1996,,
	08/07/2022 22:06:26.456,1.66869e+06,2370.86,155.00,6.00,-0.001060156,2.499942,-0.00265033,0.000702701,0.0006979678,0.002295865,0.002028345,2386.378,2370.569,0,99.32642,,
	08/07/2022 23:25:21.702,1.67343e+06,2357.78,156.00,6.00,-0.001060142,2.499888,-0.00265024,0.0006999915,0.000694201,0.002287197,0.002017074,2377.121,2357.478,0,99.17278,,
	08/08/2022 00:43:49.236,1.67813e+06,2344.53,157.00,6.00,-0.001060122,2.499991,-0.0026503,0.0006957249,0.0006903312,0.002273354,0.002005568,2362.645,2344.244,0,99.22474,,
	08/08/2022 02:01:53.317,1.68282e+06,2333.25,158.00,6.00,-0.001060131,2.499961,-0.00265029,0.0006921657,0.000687006,0.002261917,0.00199563,2350.472,2332.946,0,99.25455,,
	08/08/2022 03:19:36.105,1.68748e+06,2323.49,159.00,6.00,-0.001060083,2.499986,-0.00265019,0.0006887438,0.0006840918,0.002250871,0.001986977,2338.859,2323.077,0,99.32455,,
	08/08/2022 04:36:56.844,1.69212e+06,2310.58,160.00,6.00,-0.001060108,2.499982,-0.00265025,0.0006859641,0.0006802724,0.002241922,0.001975589,2329.693,2310.158,0,99.17025,,
	08/08/2022 05:53:55.565,1.69674e+06,2301.27,161.00,6.00,-0.001060135,2.499978,-0.00265031,0.0006821866,0.0006775451,0.002229686,0.001967552,2316.984,2300.872,0,99.3196,,
	08/08/2022 07:10:33.403,1.70134e+06,2289.51,162.00,6.00,-0.001060081,2.499986,-0.00265019,0.0006794599,0.0006740849,0.002220837,0.001957354,2307.864,2289.116,0,99.20893,,
	08/08/2022 08:26:51.465,1.70592e+06,2280.41,163.00,6.00,-0.001060076,2.499986,-0.00265018,0.0006763274,0.000671386,0.002210618,0.001949468,2297.216,2280.013,0,99.26938,,
	08/08/2022 09:42:52.713,1.71048e+06,2272.19,164.00,6.00,-0.001059828,2.499995,-0.00264956,0.0006738071,0.0006689492,0.002202449,0.001942281,2288.549,2271.738,0,99.27903,,
	08/08/2022 10:58:40.195,1.71503e+06,2266.36,165.00,6.00,-0.001059853,2.499982,-0.00264961,0.0006715964,0.0006671853,0.002195236,0.001937463,2280.646,2266.036,0,99.3432,,
	08/08/2022 12:14:26.903,1.71957e+06,2266.81,166.00,6.00,-0.001059867,2.499867,-0.00264953,0.0006712209,0.0006672916,0.002193736,0.001938326,2279.457,2266.346,0,99.4146,,
	08/08/2022 13:30:14.956,1.72412e+06,2266.77,167.00,6.00,-0.001059891,2.49994,-0.00264966,0.0006716424,0.0006672296,0.00219476,0.001938605,2280.848,2266.275,0,99.343,,
	08/08/2022 14:45:56.119,1.72866e+06,2261.95,168.00,6.00,-0.001059909,2.499997,-0.00264977,0.0006710115,0.000665821,0.002192447,0.001934756,2278.746,2261.541,0,99.22646,,
	08/08/2022 16:01:13.778,1.73318e+06,2250.55,169.00,6.00,-0.001059866,2.49994,-0.0026496,0.0006674582,0.0006625154,0.002180868,0.001924848,2266.631,2250.168,0,99.25946,,
	08/08/2022 17:16:19.576,1.73768e+06,2246.29,170.00,6.00,-0.00105982,2.499986,-0.00264954,0.0006652229,0.0006612035,0.002173573,0.001921106,2259.079,2245.853,0,99.39577,,
	08/08/2022 18:31:17.511,1.74218e+06,2240.34,171.00,6.00,-0.001060136,2.49998,-0.00265032,0.0006646267,0.0006595404,0.002171574,0.001916538,2257.071,2240.018,0,99.23473,,
	08/08/2022 19:45:58.665,1.74666e+06,2232.41,172.00,6.00,-0.001060156,2.499988,-0.00265038,0.0006620717,0.0006572196,0.002163071,0.001909755,2248.365,2232.112,0,99.26713,,
	08/08/2022 21:00:25.422,1.75113e+06,2226.17,173.00,6.00,-0.001059847,2.499982,-0.0026496,0.0006596381,0.0006552904,0.002155197,0.001904161,2240.139,2225.767,0,99.34089,,
	08/08/2022 22:14:34.100,1.75558e+06,2216.14,174.00,6.00,-0.001059824,2.499934,-0.00264949,0.0006572767,0.0006523925,0.002147479,0.001895506,2232.145,2215.75,0,99.25689,,
	08/08/2022 23:28:21.042,1.76001e+06,2205.1,175.00,6.00,-0.001059838,2.499963,-0.00264956,0.0006541222,0.0006491853,0.002137349,0.001885931,2221.354,2204.701,0,99.24525,,
	08/09/2022 00:41:44.426,1.76441e+06,2193.15,176.00,6.00,-0.001060161,2.499982,-0.00265038,0.000650742,0.0006457018,0.002126447,0.00187551,2209.838,2192.753,0,99.22546,,
	08/09/2022 01:54:44.763,1.76879e+06,2182.27,177.00,6.00,-0.001060106,2.499932,-0.00265019,0.0006471248,0.0006424799,0.002114802,0.001865779,2197.565,2181.867,0,99.28222,,
	08/09/2022 03:07:25.226,1.77315e+06,2172.5,178.00,6.00,-0.001060142,2.499999,-0.00265035,0.0006441667,0.0006396085,0.002105273,0.001857204,2187.513,2172.087,0,99.29239,,
	08/09/2022 04:19:47.376,1.77749e+06,2163.91,179.00,6.00,-0.001060105,2.499993,-0.00265026,0.0006413063,0.000637125,0.002096037,0.001849822,2177.757,2163.569,0,99.34801,,
	08/09/2022 05:31:50.701,1.78182e+06,2153.21,180.00,6.00,-0.001060122,2.499982,-0.00265029,0.0006389129,0.0006339561,0.002088282,0.001840441,2169.696,2152.824,0,99.22418,,
	08/09/2022 06:43:36.015,1.78612e+06,2145.69,181.00,6.00,-0.001060066,2.499999,-0.00265016,0.0006358065,0.0006317343,0.002078234,0.001833842,2159.214,2145.302,0,99.35952,,
	08/09/2022 07:55:03.649,1.79041e+06,2135.17,182.00,6.00,-0.001060069,2.499986,-0.00265016,0.0006335886,0.0006286422,0.002071059,0.001824719,2151.966,2134.791,0,99.2193,,
	08/09/2022 09:06:11.534,1.79468e+06,2127.92,183.00,6.00,-0.00106012,2.499982,-0.00265028,0.0006299238,0.000626502,0.002059252,0.001818161,2139.49,2127.496,0,99.45678,,
	08/09/2022 10:17:06.741,1.79893e+06,2119.88,184.00,6.00,-0.001060126,2.49986,-0.00265017,0.0006286341,0.0006241197,0.002055118,0.001811306,2134.969,2119.434,0,99.28186,,
	08/09/2022 11:27:54.829,1.80318e+06,2117.87,185.00,6.00,-0.001060165,2.499972,-0.00265038,0.0006270928,0.000623533,0.002049952,0.001809881,2129.813,2117.421,0,99.43234,,
	08/09/2022 12:38:48.410,1.80743e+06,2120.73,186.00,6.00,-0.00106015,2.499988,-0.00265036,0.0006279316,0.0006243778,0.00205235,0.001813063,2132.362,2120.365,0,99.43404,,
	08/09/2022 13:49:45.237,1.81169e+06,2120.93,187.00,6.00,-0.001060138,2.499978,-0.00265032,0.0006288408,0.0006244377,0.002054894,0.001813869,2135.463,2120.546,0,99.29981,,
	08/09/2022 15:00:28.954,1.81593e+06,2113.94,188.00,6.00,-0.001060131,2.49998,-0.00265031,0.0006270292,0.0006224027,0.002048854,0.001807829,2129.304,2113.591,0,99.26215,,
	08/09/2022 16:10:59.513,1.82016e+06,2109.23,189.00,6.00,-0.001059809,2.499963,-0.00264948,0.000624544,0.0006210146,0.0020408,0.001803682,2120.87,2108.922,0,99.43489,,
	08/09/2022 17:21:21.189,1.82439e+06,2103.22,190.00,6.00,-0.001060149,2.499925,-0.00265029,0.0006236727,0.0006191685,0.002037884,0.001798444,2117.96,2102.773,0,99.27779,,
	08/09/2022 18:31:29.224,1.82859e+06,2096.91,191.00,6.00,-0.001059858,2.499991,-0.00264964,0.0006215385,0.0006173574,0.002030897,0.001793136,2110.692,2096.588,0,99.3273,,
	08/09/2022 19:41:20.519,1.83279e+06,2088.69,192.00,6.00,-0.001060154,2.499974,-0.00265036,0.0006190356,0.000614916,0.002022754,0.001785891,2102.196,2088.416,0,99.33452,,
	08/09/2022 20:50:57.343,1.83696e+06,2081.27,193.00,6.00,-0.00106015,2.499906,-0.00265028,0.0006169314,0.000612738,0.002015976,0.001779445,2095.073,2080.895,0,99.32029,,
	08/09/2022 22:00:19.042,1.84112e+06,2073.31,194.00,6.00,-0.001060139,2.499993,-0.00265034,0.0006148422,0.0006103746,0.002009152,0.001772509,2087.955,2072.872,0,99.27337,,
	08/09/2022 23:09:23.504,1.84527e+06,2065.31,195.00,6.00,-0.001059848,2.499919,-0.00264953,0.0006121217,0.0006080368,0.002000326,0.001765467,2078.66,2064.933,0,99.33267,,
	08/10/2022 00:18:09.230,1.84939e+06,2055.01,196.00,6.00,-0.001059866,2.499997,-0.00264966,0.0006096333,0.0006049254,0.001992295,0.001756226,2070.357,2054.696,0,99.22775,,
	08/10/2022 01:26:37.143,1.8535e+06,2048.16,197.00,6.00,-0.001060041,2.499972,-0.00265007,0.0006064012,0.0006029585,0.001981858,0.001750269,2059.344,2047.839,0,99.43227,,
	08/10/2022 02:34:49.729,1.85759e+06,2038.65,198.00,6.00,-0.001060055,2.49999,-0.00265013,0.0006046277,0.0006001937,0.00197618,0.001742082,2053.581,2038.23,0,99.26667,,
	08/10/2022 03:42:43.660,1.86167e+06,2029.87,199.00,6.00,-0.001059907,2.499997,-0.00264976,0.0006017844,0.0005975287,0.001966976,0.00173415,2043.583,2029.527,0,99.29282,,
	08/10/2022 04:50:20.183,1.86573e+06,2021.43,200.00,6.00,-0.001059848,2.499978,-0.0026496,0.000599129,0.0005950733,0.001958418,0.001726746,2034.689,2021.073,0,99.32308,,