File: Cell-test-data/SiMP-LFP-PFP10/JB8_SiMP-LFP-PFP10_03C_Channel_92_StatisticByStep.CSV
Date_Time                    ,Test Time (s),Step Time (s),Cycle Index,Step Index,Current (A),Voltage (V),Power (W),Charge Capacity (Ah),Discharge Capacity (Ah),Charge Energy (Wh),Discharge Energy (Wh),Charge Time (s),Discharge Time (s),V_Max_On_Cycle (V),Coulombic Efficiency (%),mAh/g
	07/20/2022 02:36:11.287,43200,43200,1.00,1.00,0,0.208601,0,0,0,0,0,0,0,0,0,,
	07/21/2022 15:40:35.850,176665,59802.9,1.00,3.00,-0.0001589892,2.499991,-0.000397472,0.003252624,0.002640733,0.01077775,0.007842852,73647.7,59793.57,0,81.18776,,
	07/23/2022 00:34:03.685,295072,57766.1,2.00,3.00,-0.0001589905,2.499997,-0.000397476,0.002677797,0.002550872,0.008650138,0.00755249,60633.27,57757.56,0,95.26008,,
	07/24/2022 08:20:40.680,409469,56104.6,3.00,3.00,-0.0001589914,2.499993,-0.000397477,0.002574052,0.00247743,0.008287429,0.007312541,58283.46,56095.93,0,96.2463,,
	07/24/2022 12:34:17.030,424686,7353.57,4.00,6.00,-0.001060125,2.499995,-0.00265031,0.002314821,0.002165087,0.00756501,0.006279609,7861.493,7352.398,0,93.53152,,
	07/24/2022 16:34:44.012,439113,7131.95,5.00,6.00,-0.001060137,2.499986,-0.00265033,0.002147701,0.002099889,0.007002556,0.00608354,7293.862,7130.927,0,97.7738,,
	07/24/2022 20:30:56.644,453285,7005.28,6.00,6.00,-0.001060163,2.499988,-0.00265039,0.002110236,0.002062574,0.006877034,0.00597444,7166.217,7004.259,0,97.74141,,
	07/25/2022 00:22:29.310,467178,6867.93,7.00,6.00,-0.001059873,2.499986,-0.00264967,0.002068142,0.002022139,0.006741147,0.005855532,7023.591,6866.879,0,97.77566,,
	07/25/2022 04:09:57.934,480827,6747.33,8.00,6.00,-0.001060148,2.499999,-0.00265037,0.002031896,0.001986609,0.006622734,0.005753135,6900.243,6746.326,0,97.77118,,
	07/25/2022 07:53:24.665,494233,6625.85,9.00,6.00,-0.001059823,2.499997,-0.00264955,0.001996328,0.00195064,0.006507078,0.005649887,6779.79,6624.892,0,97.71136,,
	07/25/2022 11:32:46.412,507395,6507.76,10.00,6.00,-0.00105986,2.499995,-0.00264964,0.001959109,0.001915836,0.006386161,0.005549527,6652.943,6506.795,0,97.79122,,
	07/25/2022 15:08:04.507,520313,6383.33,11.00,6.00,-0.001060135,2.499988,-0.00265032,0.00192402,0.001879427,0.006272546,0.005444755,6533.726,6382.388,0,97.68227,,
	07/25/2022 18:39:43.417,533012,6281.71,12.00,6.00,-0.00106011,2.499988,-0.00265026,0.001889415,0.001849514,0.006160663,0.005360111,6416.176,6280.719,0,97.88822,,
	07/25/2022 22:07:34.973,545484,6166.52,13.00,6.00,-0.001059815,2.499999,-0.00264954,0.001856375,0.001815402,0.006053762,0.005260858,6304.046,6165.588,0,97.79288,,
	07/26/2022 01:31:41.700,557730,6057.24,14.00,6.00,-0.00105984,2.499999,-0.0026496,0.00182232,0.001783191,0.005944165,0.005168609,6188.527,6056.338,0,97.85283,,
	07/26/2022 04:52:32.566,569781,5963.38,15.00,6.00,-0.001060135,2.499997,-0.00265033,0.001792153,0.001755498,0.005846308,0.005089343,6086.555,5962.461,0,97.95471,,
	07/26/2022 08:10:07.828,581637,5864.89,16.00,6.00,-0.001059845,2.499999,-0.00264961,0.001763537,0.001726507,0.005753407,0.005006865,5989.423,5864.031,0,97.90021,,
	07/26/2022 11:24:28.163,593297,5767.8,17.00,6.00,-0.001060116,2.499995,-0.00265028,0.001734818,0.001698092,0.005660169,0.004925519,5891.559,5766.91,0,97.88295,,
	07/26/2022 14:35:21.785,604750,5668.63,18.00,6.00,-0.001060134,2.49998,-0.00265031,0.001703078,0.001669051,0.005558168,0.004841402,5784.07,5667.797,0,98.00201,,
	07/26/2022 17:43:35.098,616044,5590.98,19.00,6.00,-0.001060116,2.499993,-0.00265028,0.001678771,0.001646163,0.005478616,0.004777313,5701.438,5590.173,0,98.05762,,
	07/26/2022 20:48:43.560,627152,5496.02,20.00,6.00,-0.001059818,2.499986,-0.00264953,0.00165246,0.001618026,0.005392949,0.004695634,5611.561,5495.187,0,97.91624,,
	07/26/2022 23:50:36.059,638065,5402.72,21.00,6.00,-0.001059818,2.499995,-0.00264954,0.001622247,0.001590514,0.005296415,0.004615733,5508.903,5401.923,0,98.04383,,
	07/27/2022 02:49:47.956,648817,5323.93,22.00,6.00,-0.001059859,2.499999,-0.00264965,0.001598169,0.00156729,0.005218009,0.00454962,5427.125,5323.166,0,98.06783,,
	07/27/2022 05:46:29.086,659418,5250.68,23.00,6.00,-0.001059841,2.499991,-0.00264959,0.001575235,0.001545715,0.00514347,0.004487822,5349.595,5249.925,0,98.12601,,
	07/27/2022 08:40:32.789,669862,5171.45,24.00,6.00,-0.001059848,2.499999,-0.00264962,0.001552311,0.001522303,0.005068876,0.004420839,5271.461,5170.673,0,98.06688,,
	07/27/2022 11:32:04.808,680154,5098.64,25.00,6.00,-0.001059855,2.499997,-0.00264963,0.001529101,0.001500893,0.004993681,0.004359194,5192.54,5097.851,0,98.15521,,
	07/27/2022 14:20:57.852,690287,5020.43,26.00,6.00,-0.001060143,2.499991,-0.00265035,0.001505307,0.001478184,0.004916458,0.004293348,5111.825,5019.683,0,98.19814,,
	07/27/2022 17:07:37.183,700286,4952.94,27.00,6.00,-0.001060079,2.499995,-0.00265019,0.001485787,0.001458296,0.004853126,0.004237117,5045.551,4952.196,0,98.14974,,
	07/27/2022 19:52:10.206,710159,4892.12,28.00,6.00,-0.001060113,2.49997,-0.00265025,0.001466429,0.001440395,0.004789473,0.004186141,4980.108,4891.401,0,98.22468,,
	07/27/2022 22:34:00.680,719869,4811.8,29.00,6.00,-0.001060165,2.499993,-0.00265041,0.001442316,0.00141659,0.004711961,0.004115434,4897.905,4811.046,0,98.21635,,
	07/28/2022 01:13:48.070,729457,4750.45,30.00,6.00,-0.001060151,2.499988,-0.00265036,0.001424053,0.001398581,0.004652475,0.004064482,4836.137,4749.767,0,98.21131,,
	07/28/2022 03:51:24.555,738913,4686.45,31.00,6.00,-0.001059843,2.499995,-0.0026496,0.001404437,0.001379617,0.004588641,0.004009835,4769.339,4685.811,0,98.23274,,
	07/28/2022 06:26:59.238,748248,4628.08,32.00,6.00,-0.001060182,2.499991,-0.00265045,0.001385751,0.001362458,0.004527952,0.00396025,4705.893,4627.461,0,98.31911,,
	07/28/2022 09:00:31.895,757461,4567.17,33.00,6.00,-0.001059832,2.499995,-0.00264957,0.001367772,0.001344459,0.004469279,0.003908356,4644.817,4566.571,0,98.29556,,
	07/28/2022 11:32:07.488,766556,4511.5,34.00,6.00,-0.001060149,2.499999,-0.00265037,0.001349703,0.001328125,0.004410629,0.003860927,4583.409,4510.916,0,98.40129,,
	07/28/2022 14:01:46.893,775536,4451.15,35.00,6.00,-0.001060166,2.499993,-0.00265041,0.001333265,0.001310527,0.00435722,0.003809664,4527.603,4450.569,0,98.2946,,
	07/28/2022 16:29:35.201,784404,4402.08,36.00,6.00,-0.001060132,2.499997,-0.00265033,0.001315012,0.001296111,0.004298407,0.003767766,4465.573,4401.454,0,98.56264,,
	07/28/2022 18:55:53.209,793182,4352.83,37.00,6.00,-0.001060123,2.499972,-0.00265028,0.001302863,0.001281652,0.004258155,0.003726781,4424.505,4352.251,0,98.37204,,
	07/28/2022 21:20:20.550,801849,4300.09,38.00,6.00,-0.001060139,2.49999,-0.00265034,0.001285877,0.001266011,0.004202934,0.003680685,4366.609,4299.517,0,98.45509,,
	07/28/2022 23:42:57.928,810407,4245.86,39.00,6.00,-0.001059867,2.499991,-0.00264966,0.00126945,0.001250067,0.004150004,0.003633999,4310.864,4245.298,0,98.47319,,
	07/29/2022 02:03:58.143,818867,4196.35,40.00,6.00,-0.00105986,2.499984,-0.00264963,0.001255442,0.001235346,0.00410426,0.003591634,4263.267,4195.793,0,98.39935,,
	07/29/2022 04:23:21.236,827230,4148.88,41.00,6.00,-0.00105984,2.499997,-0.0026496,0.001240797,0.001221393,0.004056542,0.003551425,4213.543,4148.327,0,98.43612,,
	07/29/2022 06:41:10.822,835500,4103.8,42.00,6.00,-0.001059862,2.499997,-0.00264965,0.001226548,0.001208088,0.004010018,0.0035127,4165.179,4103.247,0,98.49496,,
	07/29/2022 08:57:35.385,843684,4063.25,43.00,6.00,-0.001059869,2.499991,-0.00264966,0.001213432,0.001196091,0.003967214,0.00347797,4120.675,4062.68,0,98.57098,,
	07/29/2022 11:12:26.445,851775,4014.54,44.00,6.00,-0.001059834,2.499999,-0.00264958,0.001200259,0.001181784,0.003924294,0.003436278,4075.897,4013.972,0,98.46071,,
	07/29/2022 13:25:50.574,859779,3973.47,45.00,6.00,-0.00106016,2.499991,-0.00265039,0.001186729,0.001169947,0.003880075,0.003401777,4030.045,3972.896,0,98.58585,,
	07/29/2022 15:38:07.583,867716,3942.86,46.00,6.00,-0.001060141,2.49997,-0.00265032,0.001176029,0.001160903,0.003845266,0.003376686,3993.58,3942.297,0,98.71374,,
	07/29/2022 17:49:32.884,875602,3912.54,47.00,6.00,-0.001060124,2.499984,-0.00265029,0.001169714,0.001152006,0.003823261,0.003352554,3972.147,3912.025,0,98.48608,,
	07/29/2022 19:59:36.918,883406,3874.78,48.00,6.00,-0.001060137,2.499972,-0.00265031,0.001156907,0.001140887,0.003780994,0.003319541,3928.722,3874.266,0,98.61521,,
	07/29/2022 22:08:04.838,891114,3824.57,49.00,6.00,-0.001059841,2.499986,-0.00264959,0.001143396,0.001126099,0.003737712,0.003275746,3882.768,3824.043,0,98.48727,,
	07/30/2022 00:14:59.910,898729,3781.32,50.00,6.00,-0.001060162,2.49999,-0.00265039,0.001128765,0.001113183,0.003690504,0.003237335,3833.148,3780.824,0,98.6195,,
	07/30/2022 02:20:30.168,906259,3739.24,51.00,6.00,-0.001060135,2.499976,-0.00265031,0.001116207,0.001100845,0.003649914,0.003200897,3790.473,3738.753,0,98.62374,,
	07/30/2022 04:24:41.904,913711,3700.57,52.00,6.00,-0.001060162,2.499984,-0.00265039,0.001104477,0.001089467,0.003611833,0.003167701,3750.612,3700.051,0,98.64091,,
	07/30/2022 06:27:46.174,921095,3668.14,53.00,6.00,-0.001059825,2.49998,-0.00264954,0.001094156,0.00107987,0.003578047,0.00313976,3715.602,3667.662,0,98.69434,,
	07/30/2022 08:29:45.344,928414,3635.83,54.00,6.00,-0.001060148,2.499999,-0.00265037,0.001084496,0.001070323,0.003546326,0.003112357,3682.775,3635.342,0,98.69311,,
	07/30/2022 10:30:38.567,935667,3603.7,55.00,6.00,-0.001059906,2.499986,-0.00264975,0.001074562,0.001060828,0.003513775,0.00308454,3649.002,3603.211,0,98.72192,,
	07/30/2022 12:30:34.441,942863,3576.13,56.00,6.00,-0.001060158,2.499997,-0.00265039,0.001065781,0.001052837,0.003485144,0.003061297,3619.217,3575.642,0,98.78548,,
	07/30/2022 14:29:21.483,949990,3538.9,57.00,6.00,-0.001060178,2.49998,-0.00265042,0.001056436,0.00104199,0.003454532,0.003029564,3587.585,3538.436,0,98.63258,,
	07/30/2022 16:27:21.278,957070,3518.79,58.00,6.00,-0.001060105,2.499988,-0.00265025,0.00104848,0.001036057,0.0034282,0.003013719,3560.447,3518.302,0,98.81515,,
	07/30/2022 18:24:35.232,964104,3494.59,59.00,6.00,-0.001060139,2.499999,-0.00265035,0.001042107,0.001028941,0.003406671,0.002993297,3538.825,3494.111,0,98.73654,,
	07/30/2022 20:20:39.180,971068,3458.93,60.00,6.00,-0.00106016,2.499995,-0.00265039,0.001031987,0.001018394,0.003373682,0.002961858,3504.511,3458.432,0,98.68283,,
	07/30/2022 22:15:22.641,977951,3419.92,61.00,6.00,-0.001059815,2.499988,-0.00264952,0.001019784,0.001006796,0.003334681,0.00292689,3463.02,3419.461,0,98.72633,,
	07/31/2022 00:08:58.607,984767,3385.89,62.00,6.00,-0.00106012,2.499993,-0.00265029,0.00100993,0.0009968352,0.003302741,0.002897722,3429.544,3385.451,0,98.70338,,
	07/31/2022 02:01:40.267,991529,3362.04,63.00,6.00,-0.0010601,2.499993,-0.00265024,0.001000946,0.0009898228,0.003273236,0.002877253,3399.098,3361.608,0,98.88872,,
	07/31/2022 03:53:35.739,998244,3337.58,64.00,6.00,-0.001059868,2.499991,-0.00264966,0.0009945394,0.0009826518,0.003252445,0.002856548,3377.387,3337.092,0,98.80473,,
	07/31/2022 05:44:37.646,1.00491e+06,3310.01,65.00,6.00,-0.00105988,2.499995,-0.00264969,0.0009869181,0.0009745264,0.003227338,0.002833107,3351.418,3309.565,0,98.74441,,
	07/31/2022 07:34:41.661,1.01151e+06,3281.62,66.00,6.00,-0.00105984,2.499999,-0.0026496,0.0009782172,0.0009661344,0.003198967,0.002808475,3321.888,3281.178,0,98.76481,,
	07/31/2022 09:23:57.401,1.01807e+06,3258.63,67.00,6.00,-0.001059845,2.499995,-0.00264961,0.0009707926,0.0009593036,0.003174414,0.0027887,3296.608,3258.209,0,98.81654,,
	07/31/2022 11:12:16.265,1.02456e+06,3229.43,68.00,6.00,-0.001060158,2.499986,-0.00265038,0.0009626276,0.0009507287,0.003147566,0.002763913,3268.909,3228.998,0,98.76391,,
	07/31/2022 12:59:42.646,1.03101e+06,3204.82,69.00,6.00,-0.001059825,2.499978,-0.00264954,0.0009543954,0.0009435508,0.003120843,0.00274264,3241.076,3204.384,0,98.86372,,
	07/31/2022 14:46:10.419,1.0374e+06,3172.69,70.00,6.00,-0.001060163,2.499978,-0.00265038,0.0009466253,0.0009341723,0.003095696,0.002715041,3214.563,3172.263,0,98.68448,,
	07/31/2022 16:31:41.974,1.04373e+06,3146.81,71.00,6.00,-0.001060146,2.499986,-0.00265035,0.0009377141,0.0009265537,0.003066678,0.002692732,3184.301,3146.39,0,98.80984,,
	07/31/2022 18:16:22.305,1.05001e+06,3120.54,72.00,6.00,-0.001060139,2.499997,-0.00265034,0.0009303472,0.000918782,0.003042596,0.002670188,3159.304,3120.131,0,98.7569,,
	07/31/2022 20:00:24.334,1.05625e+06,3105.46,73.00,6.00,-0.001060138,2.499997,-0.00265034,0.0009234963,0.0009143626,0.0030199,0.002657613,3136.069,3105.057,0,99.01096,,
	07/31/2022 21:43:50.470,1.06246e+06,3084.26,74.00,6.00,-0.001060134,2.499993,-0.00265033,0.0009191938,0.0009081361,0.003005511,0.002639981,3121.419,3083.875,0,98.79702,,
	07/31/2022 23:26:26.855,1.06862e+06,3060.06,75.00,6.00,-0.001060151,2.499993,-0.00265037,0.0009116595,0.0009010139,0.002980878,0.002618817,3095.838,3059.668,0,98.83228,,
	08/01/2022 01:08:08.038,1.07472e+06,3032.49,76.00,6.00,-0.001060127,2.499969,-0.00265028,0.0009035181,0.0008928826,0.002954509,0.002594571,3068.206,3032.1,0,98.82288,,
	08/01/2022 02:48:52.757,1.08076e+06,3003.71,77.00,6.00,-0.001060134,2.499997,-0.00265033,0.000895349,0.0008843099,0.002928089,0.002569409,3040.553,3003.306,0,98.76705,,
	08/01/2022 04:28:51.633,1.08676e+06,2981.95,78.00,6.00,-0.001059823,2.499991,-0.00264955,0.0008882763,0.0008778086,0.002905001,0.002550544,3016.479,2981.525,0,98.82157,,
	08/01/2022 06:08:06.046,1.09271e+06,2961.26,79.00,6.00,-0.001060183,2.499969,-0.00265042,0.0008812922,0.0008717933,0.002882048,0.00253299,2992.683,2960.869,0,98.92216,,
	08/01/2022 07:46:37.416,1.09863e+06,2938.79,80.00,6.00,-0.001060183,2.49999,-0.00265045,0.0008752314,0.0008652057,0.002862125,0.002513631,2972.121,2938.396,0,98.85452,,
	08/01/2022 09:24:30.834,1.1045e+06,2918.65,81.00,6.00,-0.001059827,2.49999,-0.00264956,0.000869965,0.0008592377,0.002844833,0.00249637,2954.3,2918.271,0,98.76692,,
	08/01/2022 11:01:29.030,1.11032e+06,2892.61,82.00,6.00,-0.001060132,2.499999,-0.00265033,0.0008613656,0.0008516986,0.002816767,0.002474025,2925.114,2892.232,0,98.87771,,
	08/01/2022 12:37:44.411,1.11609e+06,2870.71,83.00,6.00,-0.001060102,2.499991,-0.00265025,0.0008551748,0.0008452559,0.002796686,0.002455436,2904.189,2870.356,0,98.84012,,
	08/01/2022 14:13:18.458,1.12183e+06,2849.78,84.00,6.00,-0.001060067,2.499997,-0.00265016,0.0008491736,0.0008390836,0.002776744,0.002437775,2883.804,2849.411,0,98.81178,,
	08/01/2022 15:48:24.373,1.12753e+06,2836.99,85.00,6.00,-0.00106011,2.499991,-0.00265027,0.0008445875,0.0008353116,0.002761397,0.002427461,2868.499,2836.621,0,98.90172,,
	08/01/2022 17:23:00.585,1.13321e+06,2822.31,86.00,6.00,-0.001060093,2.499997,-0.00265023,0.0008402649,0.0008309896,0.002746801,0.002415306,2853.466,2821.915,0,98.89615,,
	08/01/2022 18:56:56.955,1.13885e+06,2801.18,87.00,6.00,-0.001060127,2.499995,-0.00265031,0.000834765,0.000824771,0.002728659,0.002397194,2834.73,2800.826,0,98.80277,,
	08/01/2022 20:30:15.929,1.14444e+06,2782.93,88.00,6.00,-0.001060076,2.499997,-0.00265019,0.0008290838,0.0008193809,0.002709855,0.002381834,2815.592,2782.562,0,98.82969,,
	08/01/2022 22:02:59.681,1.15001e+06,2766.07,89.00,6.00,-0.00106013,2.499986,-0.00265031,0.0008237342,0.0008144251,0.002692043,0.002367522,2797.245,2765.711,0,98.8699,,
	08/01/2022 23:35:11.177,1.15554e+06,2749.85,90.00,6.00,-0.001060074,2.499997,-0.00265018,0.0008190136,0.0008096523,0.002676359,0.002353948,2781.208,2749.497,0,98.85702,,
	08/02/2022 01:06:41.691,1.16103e+06,2728.05,91.00,6.00,-0.001060071,2.499999,-0.00265018,0.0008133271,0.0008032418,0.00265763,0.002335287,2762.035,2727.708,0,98.75999,,
	08/02/2022 02:37:35.407,1.16648e+06,2712.86,92.00,6.00,-0.001060113,2.49999,-0.00265027,0.0008069563,0.0007987561,0.002636699,0.002322278,2740.442,2712.508,0,98.98382,,
	08/02/2022 04:07:54.269,1.1719e+06,2693.27,93.00,6.00,-0.001060095,2.499993,-0.00265023,0.0008024782,0.0007929768,0.002621866,0.002305393,2725.177,2692.895,0,98.81599,,
	08/02/2022 05:37:30.728,1.17728e+06,2671.08,94.00,6.00,-0.001060076,2.49997,-0.00265016,0.0007965207,0.0007864433,0.002602289,0.002286488,2704.983,2670.723,0,98.73483,,
	08/02/2022 07:06:28.408,1.18262e+06,2654.04,95.00,6.00,-0.001060111,2.499997,-0.00265027,0.0007901479,0.0007814229,0.002581341,0.00227185,2683.259,2653.649,0,98.89577,,
	08/02/2022 08:34:39.712,1.18791e+06,2627.01,96.00,6.00,-0.001060141,2.499991,-0.00265034,0.0007844573,0.0007734758,0.002562664,0.002248387,2663.879,2626.641,0,98.60011,,
	08/02/2022 10:01:36.064,1.19312e+06,2591.72,97.00,6.00,-0.00106016,2.499999,-0.0026504,0.0007727747,0.0007631029,0.00252527,0.002216422,2624.226,2591.361,0,98.74844,,
	08/02/2022 11:27:23.876,1.19827e+06,2557.76,98.00,6.00,-0.001060151,2.499986,-0.00265036,0.0007625895,0.0007530352,0.00249292,0.002185942,2589.659,2557.4,0,98.74713,,
	08/02/2022 12:52:15.437,1.20336e+06,2530.71,99.00,6.00,-0.001060153,2.49998,-0.00265036,0.0007540114,0.0007450858,0.002465482,0.002162146,2560.47,2530.394,0,98.81626,,
	08/02/2022 14:16:24.398,1.20841e+06,2512.19,100.00,6.00,-0.001059869,2.499988,-0.00264966,0.0007469074,0.0007395076,0.002442493,0.002145648,2536.382,2511.853,0,99.00928,,
	08/02/2022 15:40:05.632,1.21343e+06,2497.72,101.00,6.00,-0.00105982,2.499999,-0.00264955,0.0007430003,0.0007352618,0.002429648,0.002133427,2523.104,2497.395,0,98.95848,,
	08/02/2022 17:03:10.057,1.21842e+06,2477.76,102.00,6.00,-0.001059876,2.49999,-0.00264968,0.0007380457,0.0007293865,0.002413417,0.002116424,2506.255,2477.433,0,98.82674,,
	08/02/2022 18:25:44.281,1.22337e+06,2464.14,103.00,6.00,-0.001059823,2.499976,-0.00264953,0.0007331486,0.0007254335,0.002397144,0.002105037,2489.647,2463.82,0,98.94767,,
	08/02/2022 19:47:40.793,1.22829e+06,2443.91,104.00,6.00,-0.001060146,2.499988,-0.00265035,0.0007280019,0.000719435,0.002380324,0.002087403,2472.148,2443.567,0,98.82323,,
	08/02/2022 21:08:59.742,1.23317e+06,2426.72,105.00,6.00,-0.001060107,2.499997,-0.00265026,0.000722009,0.0007145304,0.00236079,0.00207312,2451.819,2426.407,0,98.96418,,
	08/02/2022 22:29:53.821,1.23802e+06,2414.19,106.00,6.00,-0.001060155,2.499999,-0.00265039,0.0007183742,0.0007107814,0.002348612,0.002062399,2439.518,2413.885,0,98.94307,,
	08/02/2022 23:50:13.721,1.24284e+06,2395.6,107.00,6.00,-0.001060146,2.499988,-0.00265035,0.0007137996,0.0007053508,0.002333514,0.002046661,2423.924,2395.27,0,98.81637,,
	08/03/2022 01:09:55.296,1.24762e+06,2377.5,108.00,6.00,-0.001059868,2.49999,-0.00264966,0.0007078485,0.0007000277,0.002314145,0.002030806,2403.715,2377.162,0,98.89513,,
	08/03/2022 02:28:53.783,1.25236e+06,2354.71,109.00,6.00,-0.001060179,2.499991,-0.00265044,0.0007018765,0.000693262,0.002294804,0.002010832,2383.446,2354.372,0,98.77264,,
	08/03/2022 03:47:16.038,1.25706e+06,2337.44,110.00,6.00,-0.001060144,2.499957,-0.00265031,0.000696275,0.0006881184,0.002276577,0.001995787,2364.438,2337.128,0,98.82854,,
	08/03/2022 05:04:59.983,1.26173e+06,2318.99,111.00,6.00,-0.001059893,2.499999,-0.00264973,0.0006903588,0.0006826621,0.002257244,0.001979788,2344.584,2318.707,0,98.88512,,
	08/03/2022 06:22:07.486,1.26636e+06,2300.54,112.00,6.00,-0.001059825,2.499999,-0.00264956,0.0006851205,0.0006772495,0.002240074,0.001963938,2326.573,2300.232,0,98.85115,,
	08/03/2022 07:38:43.194,1.27095e+06,2286.08,113.00,6.00,-0.001059812,2.499986,-0.00264952,0.000680006,0.0006730462,0.002223329,0.001951663,2309.24,2285.794,0,98.97651,,
	08/03/2022 08:54:48.114,1.27552e+06,2269.32,114.00,6.00,-0.001059853,2.499995,-0.00264963,0.0006758673,0.0006681381,0.002209707,0.001937363,2295.236,2269,0,98.85641,,
	08/03/2022 10:10:24.434,1.28005e+06,2256.27,115.00,6.00,-0.001060162,2.499991,-0.0026504,0.0006713078,0.0006643005,0.002194709,0.001926114,2279.7,2255.947,0,98.95618,,
	08/03/2022 11:25:24.510,1.28455e+06,2236.92,116.00,6.00,-0.001060113,2.499982,-0.00265026,0.0006663139,0.0006586357,0.002178482,0.00190953,2262.808,2236.631,0,98.84767,,
	08/03/2022 12:40:01.178,1.28903e+06,2227.52,117.00,6.00,-0.001060141,2.499995,-0.00265035,0.0006622086,0.0006558676,0.002164927,0.001901783,2248.792,2227.229,0,99.04245,,
	08/03/2022 13:54:18.014,1.29349e+06,2216.22,118.00,6.00,-0.001060135,2.499984,-0.00265032,0.0006597047,0.0006525412,0.002156409,0.001892508,2240.247,2215.944,0,98.91413,,
	08/03/2022 15:08:08.326,1.29792e+06,2203.4,119.00,6.00,-0.001060138,2.499999,-0.00265034,0.0006556264,0.0006487698,0.002142933,0.001881474,2226.554,2203.117,0,98.9542,,
	08/03/2022 16:21:25.393,1.30231e+06,2185.8,120.00,6.00,-0.001060077,2.499997,-0.00265019,0.0006510433,0.0006435667,0.002128019,0.001866053,2210.935,2185.516,0,98.85159,,
	08/03/2022 17:34:01.128,1.30667e+06,2164.07,121.00,6.00,-0.001059848,2.499999,-0.00264962,0.0006452681,0.0006371036,0.002109252,0.001846932,2191.333,2163.781,0,98.7347,,
	08/03/2022 18:45:53.003,1.31098e+06,2143.82,122.00,6.00,-0.001060123,2.499995,-0.0026503,0.0006383331,0.0006312167,0.002086963,0.001829399,2167.717,2143.539,0,98.88515,,
	08/03/2022 19:57:16.624,1.31527e+06,2129.74,123.00,6.00,-0.001060173,2.499991,-0.00265042,0.000634154,0.0006270792,0.002073179,0.001817287,2153.537,2129.441,0,98.88436,,
	08/03/2022 21:08:06.170,1.31951e+06,2113.03,124.00,6.00,-0.001060116,2.499986,-0.00265028,0.0006290105,0.0006221648,0.002056416,0.001802899,2136.17,2112.769,0,98.91167,,
	08/03/2022 22:18:31.109,1.32374e+06,2101.91,125.00,6.00,-0.00106011,2.49998,-0.00265025,0.0006250395,0.0006188879,0.00204337,0.001793557,2122.699,2101.65,0,99.0158,,
	08/03/2022 23:28:38.420,1.32795e+06,2093.17,126.00,6.00,-0.001060151,2.499986,-0.00265036,0.0006224529,0.0006163091,0.00203465,0.001786356,2113.816,2092.873,0,99.01298,,
	08/04/2022 00:38:29.837,1.33214e+06,2085.16,127.00,6.00,-0.001060071,2.499984,-0.00265016,0.0006200977,0.0006139317,0.002026594,0.00177976,2105.912,2084.848,0,99.00563,,
	08/04/2022 01:48:02.064,1.33631e+06,2074.56,128.00,6.00,-0.001060118,2.499959,-0.00265025,0.000617607,0.0006108282,0.002018163,0.001770994,2097.332,2074.281,0,98.90241,,
	08/04/2022 02:57:01.825,1.34045e+06,2057.74,129.00,6.00,-0.001059855,2.499997,-0.00264963,0.0006129725,0.0006058887,0.002002968,0.001756258,2081.687,2057.494,0,98.84435,,
	08/04/2022 04:05:20.151,1.34455e+06,2037.03,130.00,6.00,-0.001060152,2.499999,-0.00265038,0.0006068919,0.0005997593,0.001983381,0.001737964,2060.971,2036.732,0,98.82474,,
	08/04/2022 05:13:00.758,1.34861e+06,2018.88,131.00,6.00,-0.001060132,2.499967,-0.0026503,0.0006011572,0.00059437,0.001964855,0.00172186,2041.416,2018.572,0,98.87097,,
	08/04/2022 06:20:07.985,1.35264e+06,2002.53,132.00,6.00,-0.001060113,2.499997,-0.00265028,0.000596137,0.00058962,0.001948563,0.001707872,2024.38,2002.266,0,98.90679,,
	08/04/2022 07:26:47.567,1.35664e+06,1990.41,133.00,6.00,-0.001059859,2.499999,-0.00264965,0.0005915373,0.0005859715,0.001933583,0.001697048,2008.809,1990.163,0,99.05909,,
	08/04/2022 08:33:00.763,1.36061e+06,1976.18,134.00,6.00,-0.001059871,2.499999,-0.00264968,0.0005879716,0.0005817433,0.00192196,0.001684653,1996.665,1975.945,0,98.9407,,
	08/04/2022 09:38:46.627,1.36456e+06,1962.94,135.00,6.00,-0.001060163,2.499995,-0.0026504,0.000583838,0.0005779438,0.00190846,0.00167346,1982.605,1962.673,0,98.99045,,
	08/04/2022 10:44:11.963,1.36848e+06,1953.57,136.00,6.00,-0.001060102,2.499972,-0.00265023,0.0005805487,0.000575204,0.001897631,0.001665689,1971.458,1953.296,0,99.07938,,
	08/04/2022 11:49:22.409,1.37239e+06,1945.77,137.00,6.00,-0.001060129,2.499991,-0.00265031,0.000578452,0.0005729269,0.001890542,0.001659347,1964.349,1945.541,0,99.04485,,
	08/04/2022 12:54:13.476,1.37628e+06,1934.87,138.00,6.00,-0.001060143,2.499999,-0.00265036,0.0005759525,0.0005697082,0.00188218,0.001650161,1955.866,1934.616,0,98.91584,,
	08/04/2022 13:58:40.668,1.38015e+06,1923.89,139.00,6.00,-0.001060163,2.499997,-0.0026504,0.0005721793,0.0005664564,0.001869759,0.00164054,1943.003,1923.622,0,98.9998,,
	08/04/2022 15:02:40.502,1.38399e+06,1909.37,140.00,6.00,-0.001060139,2.49999,-0.00265034,0.0005683943,0.0005621405,0.001857422,0.001627831,1930.16,1909.114,0,98.89975,,
	08/04/2022 16:06:12.712,1.3878e+06,1896.13,141.00,6.00,-0.001060152,2.499999,-0.00265038,0.0005641418,0.0005582543,0.001843553,0.001616416,1915.732,1895.873,0,98.95638,,
	08/04/2022 17:09:25.263,1.39159e+06,1887.78,142.00,6.00,-0.001059837,2.49999,-0.00264958,0.0005608324,0.0005558054,0.001832663,0.001609458,1904.479,1887.507,0,99.10366,,
	08/04/2022 18:12:17.493,1.39537e+06,1875.85,143.00,6.00,-0.001060097,2.499982,-0.00265022,0.000558362,0.0005523234,0.001824479,0.001599406,1896.094,1875.596,0,98.91852,,
	08/04/2022 19:14:43.773,1.39911e+06,1862.52,144.00,6.00,-0.00106012,2.499993,-0.00265029,0.0005546345,0.0005483999,0.001812253,0.00158791,1883.463,1862.286,0,98.87589,,
	08/04/2022 20:16:45.033,1.40283e+06,1851.49,145.00,6.00,-0.001060124,2.499995,-0.0026503,0.0005505139,0.0005451082,0.0017988,0.001578307,1869.462,1851.238,0,99.01807,,
	08/04/2022 21:18:22.120,1.40653e+06,1838.32,146.00,6.00,-0.001059829,2.49999,-0.00264956,0.0005472761,0.0005412698,0.001788193,0.001567036,1858.471,1838.055,0,98.90251,,
	08/04/2022 22:19:30.609,1.4102e+06,1823.87,147.00,6.00,-0.001059809,2.49999,-0.00264951,0.000543116,0.0005369888,0.001774578,0.001554438,1844.309,1823.635,0,98.87185,,
	08/04/2022 23:20:11.178,1.41384e+06,1811.03,148.00,6.00,-0.001060163,2.49998,-0.00265039,0.0005386627,0.0005332035,0.001760115,0.001543241,1829.221,1810.787,0,98.98652,,
	08/05/2022 00:20:27.210,1.41746e+06,1799.37,149.00,6.00,-0.001060102,2.499991,-0.00265025,0.0005348654,0.0005298018,0.001747764,0.001533186,1816.373,1799.105,0,99.0533,,
	08/05/2022 01:20:18.775,1.42105e+06,1786.19,150.00,6.00,-0.001059821,2.499995,-0.00264955,0.0005315465,0.0005258727,0.001736994,0.001521609,1805.076,1785.968,0,98.93259,,
	08/05/2022 02:19:44.393,1.42461e+06,1773.97,151.00,6.00,-0.001060155,2.499984,-0.00265037,0.0005275258,0.0005223183,0.00172389,0.001511089,1791.376,1773.762,0,99.01283,,
	08/05/2022 03:18:46.246,1.42815e+06,1762.2,152.00,6.00,-0.001060132,2.49999,-0.00265032,0.0005239827,0.000518847,0.001712382,0.001500799,1779.369,1761.985,0,99.01986,,
	08/05/2022 04:17:24.665,1.43167e+06,1750.35,153.00,6.00,-0.001059853,2.499988,-0.00264962,0.0005205711,0.0005152666,0.001701261,0.00149036,1767.783,1750.127,0,98.98103,,
	08/05/2022 05:15:43.796,1.43517e+06,1741.06,154.00,6.00,-0.001059848,2.499982,-0.0026496,0.000517617,0.0005125288,0.001691575,0.001482502,1757.755,1740.818,0,99.01699,,
	08/05/2022 06:13:40.000,1.43865e+06,1729.71,155.00,6.00,-0.001060144,2.499982,-0.00265034,0.0005142218,0.0005092833,0.001680516,0.001472924,1746.195,1729.446,0,99.03962,,
	08/05/2022 07:11:17.716,1.44211e+06,1720.25,156.00,6.00,-0.001059854,2.499991,-0.00264963,0.000511558,0.0005064514,0.001671769,0.001464742,1737.171,1720.034,0,99.00177,,
	08/05/2022 08:08:35.033,1.44554e+06,1710.15,157.00,6.00,-0.001059818,2.499999,-0.00264954,0.0005085031,0.0005035143,0.001661751,0.001456182,1726.866,1709.929,0,99.01893,,
	08/05/2022 09:05:33.173,1.44896e+06,1700.65,158.00,6.00,-0.001060138,2.499999,-0.00265034,0.0005056774,0.0005007365,0.001652299,0.001448104,1717.217,1700.427,0,99.02291,,
	08/05/2022 10:02:09.660,1.45236e+06,1689.86,159.00,6.00,-0.001060149,2.49998,-0.00265035,0.0005024575,0.0004975032,0.001641812,0.001438647,1706.339,1689.663,0,99.01399,,
	08/05/2022 10:58:25.264,1.45573e+06,1679.64,160.00,6.00,-0.001060157,2.499997,-0.00265039,0.000499312,0.000494552,0.001631557,0.001429965,1695.668,1679.414,0,99.04668,,
	08/05/2022 11:54:21.938,1.45909e+06,1670.57,161.00,6.00,-0.001060109,2.499967,-0.00265024,0.0004964101,0.0004918727,0.001622127,0.001422183,1685.828,1670.325,0,99.08595,,
	08/05/2022 12:50:07.775,1.46244e+06,1665.43,162.00,6.00,-0.001060125,2.499984,-0.0026503,0.0004947545,0.0004903592,0.001616529,0.001418091,1680.137,1665.221,0,99.11163,,
	08/05/2022 13:45:43.713,1.46577e+06,1660.55,163.00,6.00,-0.001060085,2.499995,-0.00265021,0.0004932499,0.0004889233,0.001611394,0.001414071,1675.105,1660.325,0,99.12284,,
	08/05/2022 14:41:05.893,1.46909e+06,1652.46,164.00,6.00,-0.00106007,2.499993,-0.00265017,0.0004915681,0.0004865281,0.001605718,0.00140726,1669.461,1652.245,0,98.9747,,
	08/05/2022 15:36:11.879,1.4724e+06,1644.95,165.00,6.00,-0.001060105,2.499988,-0.00265025,0.0004890467,0.0004843301,0.00159738,0.001401011,1660.755,1644.751,0,99.03555,,
	08/05/2022 16:31:02.789,1.47569e+06,1637.34,166.00,6.00,-0.0010601,2.499999,-0.00265025,0.0004867684,0.000482094,0.001589804,0.001394546,1653.291,1637.136,0,99.0397,,
	08/05/2022 17:25:39.083,1.47897e+06,1630.85,167.00,6.00,-0.001060095,2.499982,-0.00265022,0.0004844619,0.0004801759,0.001582148,0.00138901,1645.157,1630.629,0,99.11532,,
	08/05/2022 18:19:58.584,1.48223e+06,1621.18,168.00,6.00,-0.00106011,2.499995,-0.00265027,0.0004823531,0.000477326,0.001575186,0.001380733,1638.062,1620.97,0,98.95779,,
	08/05/2022 19:13:59.177,1.48547e+06,1612.24,169.00,6.00,-0.001060065,2.499988,-0.00265015,0.0004793447,0.0004746858,0.001565327,0.001373004,1628.055,1612.004,0,99.02806,,
	08/05/2022 20:07:39.311,1.48869e+06,1601.68,170.00,6.00,-0.001060113,2.499999,-0.00265028,0.0004764619,0.0004715875,0.001555897,0.001363977,1618.196,1601.473,0,98.97697,,
	08/05/2022 21:01:00.237,1.49189e+06,1592.92,171.00,6.00,-0.00106009,2.499997,-0.00265022,0.0004734077,0.0004690127,0.001545912,0.001356429,1607.728,1592.712,0,99.07162,,
	08/05/2022 21:54:03.241,1.49507e+06,1584.11,172.00,6.00,-0.001060127,2.499991,-0.00265031,0.0004707397,0.0004664155,0.001537185,0.001348753,1598.636,1583.877,0,99.08141,,
	08/05/2022 22:46:46.950,1.49824e+06,1574.22,173.00,6.00,-0.001060107,2.499991,-0.00265026,0.0004679738,0.0004635169,0.001528156,0.001340231,1589.229,1574.019,0,99.04762,,
	08/05/2022 23:39:08.563,1.50138e+06,1562,174.00,6.00,-0.00106012,2.499986,-0.00265029,0.0004650512,0.0004599173,0.001518642,0.001329653,1579.337,1561.793,0,98.89606,,
	08/06/2022 00:31:07.497,1.5045e+06,1551.88,175.00,6.00,-0.001060143,2.499995,-0.00265035,0.0004613593,0.000456938,0.001506645,0.001320879,1566.812,1551.689,0,99.04168,,
	08/06/2022 01:22:45.612,1.50759e+06,1541.45,176.00,6.00,-0.001060155,2.49999,-0.00265038,0.0004583254,0.0004538649,0.001496778,0.001311782,1556.383,1541.266,0,99.02678,,
	08/06/2022 02:14:03.686,1.51067e+06,1531.79,177.00,6.00,-0.001060099,2.49999,-0.00265024,0.0004552685,0.000451018,0.001486841,0.001303425,1546.01,1531.579,0,99.06638,,
	08/06/2022 03:05:02.283,1.51373e+06,1521.86,178.00,6.00,-0.001060134,2.499993,-0.00265033,0.0004524463,0.0004480857,0.001477654,0.00129479,1536.483,1521.671,0,99.03622,,
	08/06/2022 03:55:41.881,1.51677e+06,1512.75,179.00,6.00,-0.001060137,2.499993,-0.00265034,0.0004494947,0.0004454138,0.001468066,0.0012869,1526.57,1512.548,0,99.09212,,
	08/06/2022 04:46:03.534,1.51979e+06,1504.18,180.00,6.00,-0.001060134,2.499986,-0.00265032,0.0004467926,0.0004428859,0.001459278,0.001279477,1517.229,1503.955,0,99.12562,,
	08/06/2022 05:36:08.063,1.5228e+06,1495.27,181.00,6.00,-0.001060102,2.499988,-0.00265024,0.0004443707,0.0004402709,0.001451402,0.001271785,1508.995,1495.074,0,99.0774,,
	08/06/2022 06:25:53.495,1.52578e+06,1485.25,182.00,6.00,-0.001060138,2.499993,-0.00265034,0.000441703,0.0004372995,0.001442707,0.001263116,1499.937,1485.031,0,99.00307,,
	08/06/2022 07:15:19.921,1.52875e+06,1476.17,183.00,6.00,-0.001059855,2.499988,-0.00264962,0.0004387615,0.0004346433,0.001433114,0.001255303,1489.998,1475.991,0,99.06139,,
	08/06/2022 08:04:28.846,1.5317e+06,1467.81,184.00,6.00,-0.001060148,2.49999,-0.00265036,0.0004360794,0.0004321601,0.001424386,0.001247998,1480.853,1467.593,0,99.10125,,
	08/06/2022 08:53:19.292,1.53463e+06,1458.53,185.00,6.00,-0.001060171,2.499988,-0.00265041,0.0004333519,0.0004294144,0.001415555,0.001239934,1471.68,1458.349,0,99.09138,,
	08/06/2022 09:41:54.606,1.53754e+06,1451.67,186.00,6.00,-0.00106009,2.499986,-0.00265021,0.0004309411,0.0004274129,0.001407722,0.001234081,1463.386,1451.484,0,99.1813,,
	08/06/2022 10:30:15.522,1.54044e+06,1444.19,187.00,6.00,-0.00106016,2.499988,-0.00265039,0.0004288921,0.0004252247,0.00140102,0.00122768,1456.5,1443.989,0,99.14491,,
	08/06/2022 11:18:24.730,1.54333e+06,1438.26,188.00,6.00,-0.001060165,2.49999,-0.0026504,0.0004271248,0.0004234487,0.001395107,0.00122255,1450.677,1438.077,0,99.13933,,
	08/06/2022 12:06:17.920,1.54621e+06,1430.33,189.00,6.00,-0.001060074,2.499986,-0.00265017,0.0004248246,0.0004211318,0.001387697,0.00121575,1442.612,1430.119,0,99.13075,,
	08/06/2022 12:53:59.675,1.54907e+06,1424.74,190.00,6.00,-0.001060129,2.49999,-0.00265031,0.0004230397,0.0004195051,0.001381785,0.001211106,1436.744,1424.566,0,99.16447,,
	08/06/2022 13:41:32.503,1.55192e+06,1420.77,191.00,6.00,-0.001060129,2.499999,-0.00265032,0.0004215921,0.0004183283,0.001376956,0.001207843,1431.832,1420.591,0,99.22584,,
	08/06/2022 14:28:56.377,1.55477e+06,1415.68,192.00,6.00,-0.001060076,2.499993,-0.00265018,0.0004204995,0.0004168268,0.001373262,0.001203598,1427.959,1415.502,0,99.12658,,
	08/06/2022 15:16:12.243,1.5576e+06,1412.03,193.00,6.00,-0.001060067,2.499993,-0.00265016,0.0004191877,0.0004157473,0.00136885,0.001200597,1423.571,1411.849,0,99.17925,,
	08/06/2022 16:03:20.869,1.56043e+06,1408.51,194.00,6.00,-0.001060091,2.49999,-0.00265022,0.000418109,0.0004147167,0.001365166,0.001197752,1419.876,1408.333,0,99.18864,,
	08/06/2022 16:50:19.308,1.56325e+06,1402.61,195.00,6.00,-0.001060056,2.499984,-0.00265012,0.0004168423,0.0004129804,0.001360911,0.001192816,1415.58,1402.429,0,99.07351,,
	08/06/2022 17:37:04.632,1.56605e+06,1396.13,196.00,6.00,-0.001060111,2.499999,-0.00265028,0.0004149177,0.0004110784,0.001354548,0.001187329,1408.969,1395.947,0,99.07468,,
	08/06/2022 18:23:37.776,1.56885e+06,1390.77,197.00,6.00,-0.001060097,2.499999,-0.00265024,0.0004128774,0.0004094965,0.001347843,0.001182749,1402.114,1390.584,0,99.18113,,
	08/06/2022 19:09:58.272,1.57163e+06,1383.67,198.00,6.00,-0.001060144,2.499972,-0.00265033,0.0004112627,0.0004073991,0.001342528,0.001176656,1396.597,1383.483,0,99.06055,,
	08/06/2022 19:56:04.231,1.57439e+06,1376.78,199.00,6.00,-0.001060148,2.499978,-0.00265035,0.0004089549,0.0004053772,0.001334976,0.001170687,1388.92,1376.603,0,99.12517,,
	08/06/2022 20:41:55.025,1.57714e+06,1368.78,200.00,6.00,-0.00106009,2.499986,-0.00265021,0.0004069083,0.0004030164,0.001328291,0.001163786,1381.778,1368.591,0,99.04353,,