File: Cell-test-data/SiMP-LFP-PS1/JB3_SiMP-LFP-PS1_Channel_76_StatisticByStep.CSV
Date_Time                    ,Test Time (s),Step Time (s),Cycle Index,Step Index,Current (A),Voltage (V),Power (W),Charge Capacity (Ah),Discharge Capacity (Ah),Charge Energy (Wh),Discharge Energy (Wh),Charge Time (s),Discharge Time (s),V_Max_On_Cycle (V),Coulombic Efficiency (%),mAh/g
	08/05/2022 01:52:44.405,43200,43200,1.00,1.00,0,0.2528172,0,0,0,0,0,0,0,0,0,,
	08/08/2022 01:40:02.620,301638,60964.4,2.00,3.00,-0.0001590052,2.499988,-0.000397511,0.002773725,0.00269226,0.008964243,0.007968941,62802.62,60956.47,0,97.06295,,
	08/09/2022 16:01:17.072,439713,8092.08,4.00,6.00,-0.001059996,2.499999,-0.00264999,0.002506394,0.002382258,0.008180105,0.006914909,8512.82,8091.018,0,95.04722,,
	08/10/2022 00:48:49.971,471366,7785.89,6.00,6.00,-0.001059951,2.499999,-0.00264988,0.00233071,0.002292167,0.007585428,0.0066417,7916.341,7784.859,0,98.34631,,
	08/10/2022 09:19:52.857,502028,7537.74,8.00,6.00,-0.001060008,2.499993,-0.00265001,0.002257978,0.002219214,0.007350022,0.006422979,7669.417,7536.764,0,98.28323,,
	08/10/2022 17:38:19.937,531936,7375.57,10.00,6.00,-0.00105991,2.499997,-0.00264977,0.002208734,0.002171329,0.007186027,0.006290721,7501.953,7374.602,0,98.3065,,
	08/11/2022 01:44:18.797,561094,7172.84,12.00,6.00,-0.001059942,2.499997,-0.00264985,0.002150368,0.002111685,0.006995257,0.006119987,7303.561,7171.901,0,98.2011,,
	08/11/2022 09:34:18.847,589294,6917.66,14.00,6.00,-0.001060063,2.499995,-0.00265015,0.002075785,0.002036632,0.006757355,0.005897474,7050.352,6916.829,0,98.11383,,
	08/11/2022 17:11:01.132,616697,6757.47,16.00,6.00,-0.00105992,2.499986,-0.00264979,0.002025204,0.001989339,0.006592078,0.005767776,6878.337,6756.661,0,98.22906,,
	08/12/2022 00:35:43.527,643379,6554.57,18.00,6.00,-0.001059961,2.499997,-0.0026499,0.00196669,0.001929637,0.006402823,0.005595214,6679.783,6553.649,0,98.11594,,
	08/12/2022 07:44:59.100,669135,6327.8,20.00,6.00,-0.001060054,2.49999,-0.00265012,0.001895856,0.001862949,0.006178134,0.005398195,6439.326,6326.877,0,98.26429,,
	08/12/2022 14:42:32.282,694188,6192.01,22.00,6.00,-0.001059923,2.499991,-0.0026498,0.001850011,0.001822853,0.006029715,0.005288383,6283.321,6191.245,0,98.53197,,
	08/12/2022 21:31:41.311,718737,6043.28,24.00,6.00,-0.00105997,2.49999,-0.00264991,0.001809506,0.001779058,0.005895408,0.005164993,6145.708,6042.515,0,98.3173,,
	08/13/2022 04:08:52.538,742568,5859.75,26.00,6.00,-0.001059966,2.499993,-0.00264991,0.001754361,0.001725067,0.005718751,0.005007074,5958.598,5858.966,0,98.33024,,
	08/13/2022 10:33:47.987,765664,5680.74,28.00,6.00,-0.001059915,2.499995,-0.00264978,0.001699159,0.001672374,0.005542797,0.004851767,5771.141,5679.978,0,98.42363,,
	08/13/2022 16:50:24.154,788260,5565.95,30.00,6.00,-0.001059898,2.499999,-0.00264974,0.001667055,0.001638533,0.005435907,0.004758463,5661.991,5565.172,0,98.28907,,
	08/13/2022 22:56:31.162,810227,5416.98,32.00,6.00,-0.001059984,2.499995,-0.00264995,0.001619087,0.001594729,0.005282341,0.004631045,5499.169,5416.25,0,98.49554,,
	08/14/2022 04:53:23.032,831639,5275.97,34.00,6.00,-0.001059975,2.49999,-0.00264993,0.001577223,0.001553239,0.005147158,0.004509802,5356.946,5275.286,0,98.47939,,
	08/14/2022 10:41:20.944,852517,5152.91,36.00,6.00,-0.001059924,2.49999,-0.0026498,0.00153826,0.001516931,0.005021865,0.004405093,5224.648,5152.198,0,98.61342,,
	08/14/2022 16:21:45.800,872941,5024.95,38.00,6.00,-0.001059991,2.499995,-0.00264997,0.001502261,0.00147936,0.004904829,0.004295153,5102.405,5024.287,0,98.47558,,
	08/14/2022 21:54:23.391,892899,4938.1,40.00,6.00,-0.001059957,2.499997,-0.00264989,0.001474173,0.001453705,0.004813165,0.004224695,5006.887,4937.409,0,98.61155,,
	08/15/2022 03:21:01.119,912497,4837.19,42.00,6.00,-0.001059912,2.499982,-0.00264976,0.001444865,0.001424019,0.004716821,0.004139271,4907.396,4836.519,0,98.55721,,
	08/15/2022 08:40:30.000,931666,4731.43,44.00,6.00,-0.001059943,2.499991,-0.00264985,0.001413213,0.001392875,0.00461435,0.004048962,4799.825,4730.74,0,98.56085,,
	08/15/2022 13:53:30.330,950446,4640.5,46.00,6.00,-0.001059938,2.499999,-0.00264984,0.001385773,0.001366114,0.00452474,0.003972396,4706.719,4639.874,0,98.58137,,
	08/15/2022 18:59:07.426,968783,4526.58,48.00,6.00,-0.001059984,2.499988,-0.00264995,0.001350698,0.001332616,0.00441234,0.003873364,4587.579,4525.985,0,98.66128,,
	08/15/2022 23:59:35.099,986811,4466.12,50.00,6.00,-0.00105992,2.499991,-0.00264979,0.001331547,0.001314735,0.004348621,0.003825038,4522.361,4465.526,0,98.73745,,
	08/16/2022 04:55:33.384,1.00457e+06,4390.19,52.00,6.00,-0.0010599,2.499991,-0.00264974,0.001309683,0.001292369,0.004276525,0.003761458,4448.118,4389.586,0,98.67799,,
	08/16/2022 09:45:29.644,1.02197e+06,4288.58,54.00,6.00,-0.001059971,2.499995,-0.00264992,0.00128155,0.001262541,0.004185023,0.003672956,4352.648,4288.035,0,98.51669,,
	08/16/2022 14:27:12.883,1.03887e+06,4175.06,56.00,6.00,-0.001059994,2.499988,-0.00264997,0.001244543,0.001229108,0.004067523,0.003572746,4227.126,4174.492,0,98.75974,,
	08/16/2022 19:03:17.976,1.05543e+06,4102.41,58.00,6.00,-0.001059929,2.499986,-0.00264981,0.001221258,0.001207694,0.003992282,0.003511026,4147.88,4101.907,0,98.88939,,
	08/16/2022 23:36:28.532,1.07182e+06,4062.69,60.00,6.00,-0.001059921,2.499997,-0.0026498,0.001210535,0.00119594,0.003955295,0.003480486,4111.421,4062.043,0,98.79432,,
	08/17/2022 04:05:48.465,1.08798e+06,3998.58,62.00,6.00,-0.001059884,2.499995,-0.0026497,0.00119168,0.001177105,0.003893235,0.003426634,4047.247,3998.099,0,98.77696,,
	08/17/2022 08:30:29.506,1.10387e+06,3926.11,64.00,6.00,-0.001059891,2.499988,-0.00264971,0.001170704,0.001155746,0.003824721,0.00336451,3976.133,3925.615,0,98.7223,,
	08/17/2022 12:49:47.953,1.11942e+06,3849.75,66.00,6.00,-0.0010599,2.499997,-0.00264975,0.001147114,0.001133273,0.003748604,0.003298449,3895.964,3849.258,0,98.79342,,
	08/17/2022 17:04:09.449,1.13469e+06,3767.93,68.00,6.00,-0.001059938,2.499993,-0.00264984,0.001124113,0.001109263,0.003674136,0.003226742,3817.988,3767.448,0,98.67896,,
	08/17/2022 21:11:42.029,1.14954e+06,3669.05,70.00,6.00,-0.001059982,2.499993,-0.00264995,0.001092462,0.001080154,0.003573972,0.003138421,3710.519,3668.586,0,98.87341,,
	08/18/2022 01:14:39.189,1.16411e+06,3611.23,72.00,6.00,-0.001059968,2.499999,-0.00264992,0.001074633,0.001063124,0.003516004,0.003089446,3649.913,3610.781,0,98.92907,,
	08/18/2022 05:14:20.064,1.1785e+06,3562.81,74.00,6.00,-0.001060017,2.499988,-0.00265003,0.001060458,0.001048849,0.003469279,0.003048726,3601.73,3562.358,0,98.90524,,
	08/18/2022 09:09:45.262,1.19262e+06,3498.34,76.00,6.00,-0.001059962,2.499997,-0.0026499,0.001040412,0.001029899,0.003404727,0.002992533,3533.758,3497.872,0,98.98949,,
	08/18/2022 13:01:52.675,1.20655e+06,3450.03,78.00,6.00,-0.001059917,2.499991,-0.00264978,0.001027077,0.001015649,0.003360808,0.002951644,3488.388,3449.58,0,98.88729,,
	08/18/2022 16:50:15.295,1.22025e+06,3395.19,80.00,6.00,-0.001059931,2.499993,-0.00264982,0.001009805,0.0009995033,0.003304868,0.002904532,3429.748,3394.746,0,98.97987,,
	08/18/2022 20:35:30.146,1.23377e+06,3347.31,82.00,6.00,-0.001060005,2.499995,-0.00265001,0.0009960966,0.0009854389,0.003260095,0.002863725,3383.183,3346.863,0,98.93005,,
	08/19/2022 00:17:05.827,1.24706e+06,3293.25,84.00,6.00,-0.001060002,2.499974,-0.00264998,0.0009795494,0.0009695396,0.003206487,0.002816738,3327.015,3292.79,0,98.97813,,
	08/19/2022 03:55:22.862,1.26016e+06,3246.59,86.00,6.00,-0.001060002,2.499997,-0.00265,0.0009652856,0.0009558263,0.003160179,0.002776627,3278.648,3246.176,0,99.02006,,
	08/19/2022 07:30:32.629,1.27307e+06,3199.02,88.00,6.00,-0.001060024,2.499972,-0.00265003,0.0009512863,0.000941817,0.003114702,0.00273563,3231.045,3198.633,0,99.00458,,
	08/19/2022 11:02:46.792,1.2858e+06,3158.76,90.00,6.00,-0.001059975,2.499993,-0.00264993,0.0009386511,0.0009299635,0.003073472,0.002701353,3188.217,3158.341,0,99.07446,,
	08/19/2022 14:32:50.030,1.29841e+06,3127.05,92.00,6.00,-0.001059938,2.499991,-0.00264984,0.0009298234,0.0009205586,0.003044109,0.002675098,3158.065,3126.611,0,99.0036,,
	08/19/2022 18:00:14.148,1.31085e+06,3083.01,94.00,6.00,-0.001059901,2.499999,-0.00264975,0.000917073,0.0009076121,0.003002555,0.002637029,3114.825,3082.589,0,98.96837,,
	08/19/2022 21:24:45.816,1.32312e+06,3042.82,96.00,6.00,-0.001060003,2.499978,-0.00264998,0.0009047973,0.0008958128,0.002962647,0.002602483,3073.098,3042.42,0,99.00701,,
	08/20/2022 00:46:27.845,1.33522e+06,3000.54,98.00,6.00,-0.00105997,2.499997,-0.00264992,0.0008920215,0.0008833527,0.002921178,0.002565925,3029.724,3000.131,0,99.02818,,
	08/20/2022 04:05:30.947,1.34717e+06,2963.33,100.00,6.00,-0.001059994,2.499984,-0.00264997,0.0008801315,0.0008723889,0.002882412,0.002533922,2989.313,2962.923,0,99.12029,,
	08/20/2022 07:22:10.050,1.35897e+06,2928.24,102.00,6.00,-0.001059989,2.499984,-0.00264996,0.0008696112,0.0008620661,0.002848102,0.002503978,2953.643,2927.835,0,99.13236,,
	08/20/2022 10:36:36.087,1.37063e+06,2894.97,104.00,6.00,-0.001059933,2.499997,-0.00264983,0.0008600466,0.0008522737,0.002816897,0.002475648,2921.101,2894.606,0,99.09622,,
	08/20/2022 13:48:38.637,1.38215e+06,2858.14,106.00,6.00,-0.001059989,2.499995,-0.00264997,0.0008489214,0.0008414285,0.002780609,0.002443742,2883.323,2857.734,0,99.11736,,
	08/20/2022 16:58:19.700,1.39354e+06,2824.78,108.00,6.00,-0.001059947,2.499995,-0.00264986,0.0008390304,0.0008316056,0.002748471,0.002415104,2849.712,2824.402,0,99.11508,,
	08/20/2022 20:05:51.762,1.40479e+06,2792.35,110.00,6.00,-0.001059979,2.499986,-0.00264993,0.0008291436,0.0008220936,0.002716151,0.002387275,2816.179,2792,0,99.14972,,
	08/20/2022 23:11:24.206,1.41592e+06,2763.39,112.00,6.00,-0.001059975,2.49998,-0.00264992,0.0008207101,0.0008135266,0.002688562,0.002362547,2787.465,2763.012,0,99.12473,,
	08/21/2022 02:14:47.286,1.42692e+06,2729.28,114.00,6.00,-0.001060038,2.499997,-0.00265009,0.0008107785,0.0008035225,0.00265628,0.002333023,2753.8,2728.941,0,99.10506,,
	08/21/2022 05:15:51.825,1.43779e+06,2696.39,116.00,6.00,-0.001060057,2.499999,-0.00265014,0.0008005658,0.0007938662,0.002623079,0.002304623,2719.238,2696.054,0,99.16314,,
	08/21/2022 08:14:53.494,1.44853e+06,2666.37,118.00,6.00,-0.001060045,2.499995,-0.00265011,0.0007916851,0.0007850152,0.002594131,0.002278831,2689.027,2666.019,0,99.1575,,
	08/21/2022 11:12:04.179,1.45916e+06,2640.28,120.00,6.00,-0.001059971,2.499984,-0.00264991,0.0007835653,0.0007773112,0.002567588,0.002256482,2661.39,2639.96,0,99.20185,,
	08/21/2022 14:07:36.740,1.46969e+06,2615.92,122.00,6.00,-0.001059968,2.499984,-0.0026499,0.0007765125,0.0007701069,0.002544455,0.002235781,2637.354,2615.561,0,99.17509,,
	08/21/2022 17:01:22.089,1.48012e+06,2588.3,124.00,6.00,-0.001059931,2.499993,-0.00264982,0.0007683766,0.0007619913,0.002517874,0.002211977,2609.768,2587.99,0,99.16899,,
	08/21/2022 19:53:13.356,1.49043e+06,2559.51,126.00,6.00,-0.001060005,2.499999,-0.00265001,0.0007600012,0.0007535198,0.00249063,0.002187109,2581.288,2559.16,0,99.14718,,
	08/21/2022 22:43:08.362,1.50062e+06,2531.38,128.00,6.00,-0.001059989,2.499997,-0.00264997,0.0007513584,0.0007452453,0.002462478,0.002162843,2551.972,2531.018,0,99.18639,,
	08/22/2022 01:31:13.737,1.51071e+06,2504.09,130.00,6.00,-0.001059999,2.499999,-0.00265,0.0007433039,0.0007372284,0.002436216,0.00213937,2524.65,2503.743,0,99.18263,,
	08/22/2022 04:17:31.015,1.52069e+06,2477.33,132.00,6.00,-0.001060047,2.499978,-0.00265009,0.0007351829,0.000729372,0.002409788,0.002116228,2497.077,2477.016,0,99.20959,,
	08/22/2022 07:02:02.894,1.53056e+06,2452.02,134.00,6.00,-0.001060052,2.499976,-0.0026501,0.0007274595,0.0007219238,0.002384656,0.002094362,2470.857,2451.685,0,99.23904,,
	08/22/2022 09:45:05.967,1.54034e+06,2431.17,136.00,6.00,-0.001060029,2.499995,-0.00265007,0.0007211529,0.0007157578,0.002364004,0.002076659,2449.439,2430.839,0,99.25188,,
	08/22/2022 12:27:01.872,1.55006e+06,2417.14,138.00,6.00,-0.001059989,2.499972,-0.00264994,0.0007168164,0.0007115927,0.002349613,0.00206513,2434.633,2416.805,0,99.27127,,
	08/22/2022 15:07:52.021,1.55971e+06,2398.1,140.00,6.00,-0.001059933,2.499997,-0.00264983,0.0007114224,0.000705987,0.00233175,0.002049026,2416.268,2397.786,0,99.236,,
	08/22/2022 17:47:06.227,1.56926e+06,2371.69,142.00,6.00,-0.001059952,2.499988,-0.00264987,0.0007039664,0.0006982167,0.002307533,0.002025966,2390.954,2371.398,0,99.18324,,
	08/22/2022 20:24:43.307,1.57872e+06,2350.25,144.00,6.00,-0.001059985,2.499978,-0.00264994,0.0006971305,0.0006919115,0.002285252,0.002007548,2367.752,2349.977,0,99.25136,,
	08/22/2022 23:01:00.963,1.5881e+06,2330.36,146.00,6.00,-0.001059999,2.499991,-0.00264999,0.0006913526,0.0006860618,0.002266336,0.001990555,2348.148,2330.043,0,99.23473,,
	08/23/2022 01:35:55.065,1.59739e+06,2309.14,148.00,6.00,-0.001060017,2.499993,-0.00265004,0.0006849466,0.0006798243,0.002245418,0.001972213,2326.423,2308.827,0,99.25216,,
	08/23/2022 04:09:20.514,1.6066e+06,2286.82,150.00,6.00,-0.00105998,2.499997,-0.00264995,0.0006784495,0.000673236,0.002224311,0.001952857,2304.31,2286.51,0,99.23157,,
	08/23/2022 06:41:18.684,1.61571e+06,2265.32,152.00,6.00,-0.001060003,2.499997,-0.00265,0.0006720145,0.0006669362,0.002203346,0.001934278,2282.462,2265.038,0,99.24432,,
	08/23/2022 09:11:54.787,1.62475e+06,2245.36,154.00,6.00,-0.00106001,2.499982,-0.00265001,0.0006661195,0.0006610446,0.002184112,0.001917122,2262.496,2245.052,0,99.23814,,
	08/23/2022 11:41:30.087,1.63373e+06,2233.65,156.00,6.00,-0.001059914,2.499995,-0.00264978,0.0006622502,0.0006575666,0.002171223,0.001907496,2249.244,2233.375,0,99.29277,,
	08/23/2022 14:10:02.503,1.64264e+06,2214.1,158.00,6.00,-0.00105994,2.499978,-0.00264983,0.0006567354,0.0006518179,0.002153176,0.0018906,2230.533,2213.804,0,99.25121,,
	08/23/2022 16:37:07.960,1.65146e+06,2192.99,160.00,6.00,-0.00105998,2.499982,-0.00264993,0.000650242,0.000645633,0.002132064,0.001872303,2208.531,2192.731,0,99.29118,,
	08/23/2022 19:02:55.686,1.66021e+06,2174.08,162.00,6.00,-0.001059996,2.49999,-0.00264998,0.0006449188,0.0006400361,0.002114731,0.001855953,2190.43,2173.777,0,99.2429,,
	08/23/2022 21:27:28.649,1.66888e+06,2156.19,164.00,6.00,-0.001060022,2.499997,-0.00265005,0.0006392629,0.0006347946,0.00209624,0.001840603,2171.233,2155.92,0,99.30103,,
	08/23/2022 23:50:40.943,1.67748e+06,2135.06,166.00,6.00,-0.001059993,2.499999,-0.00264998,0.0006330064,0.0006285846,0.002075906,0.001822156,2149.984,2134.771,0,99.30147,,
	08/24/2022 02:12:32.616,1.68599e+06,2115.56,168.00,6.00,-0.001060022,2.499993,-0.00265005,0.0006272367,0.000622846,0.002057128,0.001805231,2130.44,2115.275,0,99.29999,,
	08/24/2022 04:33:12.017,1.69443e+06,2097.91,170.00,6.00,-0.001060049,2.499978,-0.0026501,0.0006220227,0.0006176515,0.002040155,0.001790018,2112.747,2097.623,0,99.29726,,
	08/24/2022 06:52:41.047,1.7028e+06,2080.82,172.00,6.00,-0.001060087,2.499982,-0.0026502,0.0006167754,0.0006126395,0.002023017,0.00177533,2094.961,2080.534,0,99.32944,,
	08/24/2022 09:11:06.384,1.7111e+06,2066.18,174.00,6.00,-0.00106003,2.499986,-0.00265006,0.0006121763,0.0006083123,0.002007949,0.001762795,2079.315,2065.904,0,99.36881,,
	08/24/2022 11:28:35.550,1.71935e+06,2052.39,176.00,6.00,-0.001059982,2.499997,-0.00264995,0.0006080106,0.0006042302,0.001994312,0.001751048,2065.075,2052.117,0,99.37824,,
	08/24/2022 13:45:28.589,1.72756e+06,2043.21,178.00,6.00,-0.001059987,2.499991,-0.00264996,0.0006057915,0.0006015269,0.001986808,0.001743569,2057.529,2042.948,0,99.29604,,
	08/24/2022 16:01:34.220,1.73573e+06,2031.32,180.00,6.00,-0.001060013,2.499991,-0.00265002,0.0006021712,0.0005980175,0.00197488,0.001733459,2045.269,2031.031,0,99.3102,,
	08/24/2022 18:16:38.490,1.74383e+06,2015.32,182.00,6.00,-0.001059973,2.499995,-0.00264993,0.0005972973,0.0005933065,0.001958999,0.001719547,2028.669,2015.076,0,99.33186,,
	08/24/2022 20:30:34.816,1.75187e+06,1997.54,184.00,6.00,-0.001059968,2.499999,-0.00264992,0.0005922716,0.0005880757,0.001942617,0.001704112,2011.628,1997.272,0,99.29156,,
	08/24/2022 22:43:16.826,1.75983e+06,1979.14,186.00,6.00,-0.001060043,2.499984,-0.00265009,0.0005865899,0.0005826878,0.001924163,0.001688123,1992.321,1978.887,0,99.3348,,
	08/25/2022 00:54:51.777,1.76773e+06,1962.86,188.00,6.00,-0.001060005,2.499991,-0.00265,0.000581874,0.0005779015,0.001908799,0.001674039,1976.376,1962.626,0,99.31729,,
	08/25/2022 03:05:25.235,1.77556e+06,1948.19,190.00,6.00,-0.001060044,2.499995,-0.0026501,0.0005773089,0.0005735632,0.001893891,0.001661296,1960.833,1947.921,0,99.35117,,
	08/25/2022 05:15:03.816,1.78334e+06,1934.42,192.00,6.00,-0.001060005,2.499999,-0.00265001,0.0005734427,0.0005695301,0.001881269,0.001649489,1947.734,1934.184,0,99.31769,,
	08/25/2022 07:23:49.259,1.79106e+06,1922.36,194.00,6.00,-0.001060036,2.499999,-0.00265009,0.0005694614,0.0005659765,0.001868279,0.001639126,1934.204,1922.104,0,99.38803,,
	08/25/2022 09:31:46.750,1.79874e+06,1910.11,196.00,6.00,-0.001060013,2.499997,-0.00265003,0.0005659371,0.0005623431,0.001856698,0.001628635,1922.239,1909.836,0,99.36494,,
	08/25/2022 11:39:01.708,1.80638e+06,1900.55,198.00,6.00,-0.001059962,2.499993,-0.0026499,0.0005630049,0.0005595268,0.001847072,0.001620604,1912.275,1900.321,0,99.38222,,
	08/25/2022 13:45:51.376,1.81399e+06,1893.73,200.00,6.00,-0.001059971,2.499995,-0.00264992,0.0005614612,0.0005575059,0.001841718,0.001615049,1906.942,1893.473,0,99.29554,,
	08/25/2022 15:51:58.433,1.82155e+06,1883.3,202.00,6.00,-0.001059934,2.499978,-0.00264981,0.0005581654,0.0005544181,0.001830906,0.001606149,1895.714,1883.037,0,99.32864,,
	08/25/2022 17:57:06.518,1.82906e+06,1866.9,204.00,6.00,-0.001059929,2.49998,-0.0026498,0.000553055,0.000549601,0.001814295,0.001591798,1878.381,1866.646,0,99.37547,,
	08/25/2022 20:01:15.250,1.83651e+06,1852.36,206.00,6.00,-0.001060054,2.499999,-0.00265013,0.0005488258,0.0005453576,0.00180052,0.001579279,1864.101,1852.114,0,99.36807,,
	08/25/2022 22:04:25.818,1.8439e+06,1838.21,208.00,6.00,-0.001060015,2.499988,-0.00265002,0.0005446504,0.0005411964,0.00178694,0.001566963,1849.937,1837.998,0,99.36583,,
	08/26/2022 00:06:40.809,1.85124e+06,1824.48,210.00,6.00,-0.001060003,2.499986,-0.00264999,0.0005404704,0.0005371455,0.001773314,0.001555039,1835.758,1824.233,0,99.3848,,
	08/26/2022 02:08:03.533,1.85852e+06,1811.47,212.00,6.00,-0.001060015,2.499988,-0.00265002,0.0005366861,0.0005333167,0.001760995,0.001543822,1822.87,1811.246,0,99.37218,,
	08/26/2022 04:08:31.924,1.86575e+06,1797.13,214.00,6.00,-0.001060049,2.499988,-0.00265011,0.000532697,0.0005291185,0.001747965,0.001531463,1809.384,1796.919,0,99.32823,,
	08/26/2022 06:08:06.681,1.87292e+06,1785.23,216.00,6.00,-0.001060052,2.499993,-0.00265012,0.000528828,0.0005256124,0.001735375,0.001521175,1796.233,1784.984,0,99.39194,,
	08/26/2022 08:07:00.525,1.88006e+06,1775.61,218.00,6.00,-0.001060031,2.499991,-0.00265007,0.0005258424,0.0005227611,0.001725512,0.001512952,1786.072,1775.372,0,99.41403,,
	08/26/2022 10:05:14.633,1.88715e+06,1765.45,220.00,6.00,-0.001060078,2.499997,-0.00265019,0.0005230008,0.000519774,0.001716198,0.001504315,1776.374,1765.225,0,99.38301,,
	08/26/2022 12:02:52.034,1.89421e+06,1757.06,222.00,6.00,-0.001059998,2.499995,-0.00264999,0.0005203773,0.0005172853,0.001707563,0.001497153,1767.498,1756.821,0,99.40582,,
	08/26/2022 13:59:58.362,1.90123e+06,1749.72,224.00,6.00,-0.001060001,2.499991,-0.00264999,0.000518092,0.0005151239,0.001699978,0.001491004,1759.671,1749.502,0,99.42712,,
	08/26/2022 15:56:36.430,1.90823e+06,1741.68,226.00,6.00,-0.001059966,2.499999,-0.00264991,0.0005159716,0.0005127529,0.001692924,0.001484245,1752.472,1741.462,0,99.37618,,
	08/26/2022 17:52:31.132,1.91519e+06,1730.05,228.00,6.00,-0.001060017,2.499995,-0.00265004,0.0005125166,0.0005093181,0.001681648,0.001474089,1740.717,1729.802,0,99.37591,,
	08/26/2022 19:47:34.693,1.92209e+06,1717.71,230.00,6.00,-0.001060019,2.49998,-0.00265003,0.0005087401,0.0005057088,0.001669394,0.00146344,1727.982,1717.502,0,99.40416,,
	08/26/2022 21:41:49.905,1.92895e+06,1704.63,232.00,6.00,-0.001060007,2.49998,-0.00265,0.0005050241,0.0005018637,0.001657248,0.001452019,1715.351,1704.403,0,99.3742,,
	08/26/2022 23:35:11.102,1.93575e+06,1691.89,234.00,6.00,-0.001060047,2.499995,-0.00265011,0.0005011164,0.0004981053,0.001644554,0.001440893,1702.052,1691.639,0,99.39911,,
	08/27/2022 01:27:44.775,1.9425e+06,1680.64,236.00,6.00,-0.001060035,2.499982,-0.00265007,0.0004976838,0.0004948154,0.001633357,0.001431229,1690.42,1680.438,0,99.42365,,
	08/27/2022 03:19:37.386,1.94921e+06,1670.71,238.00,6.00,-0.00106007,2.499991,-0.00265017,0.0004947219,0.0004918878,0.001623638,0.001422699,1680.388,1670.468,0,99.42712,,
	08/27/2022 05:10:50.375,1.95589e+06,1660.33,240.00,6.00,-0.001060017,2.499995,-0.00265004,0.0004918074,0.0004888345,0.001614123,0.001413725,1670.461,1660.124,0,99.39552,,
	08/27/2022 07:01:18.882,1.96251e+06,1649.53,242.00,6.00,-0.001060059,2.499995,-0.00265014,0.0004885316,0.0004856555,0.001603446,0.001404358,1659.313,1649.326,0,99.41127,,
	08/27/2022 08:51:10.487,1.96911e+06,1641.1,244.00,6.00,-0.00106003,2.499972,-0.00265005,0.0004859898,0.0004831633,0.00159512,0.001397106,1650.703,1640.888,0,99.4184,,
	08/27/2022 10:40:30.472,1.97567e+06,1633.75,246.00,6.00,-0.001060029,2.499997,-0.00265007,0.0004835693,0.0004809952,0.001587177,0.00139088,1642.482,1633.52,0,99.4677,,
	08/27/2022 12:29:22.368,1.9822e+06,1626.32,248.00,6.00,-0.001059938,2.499997,-0.00264984,0.0004815825,0.0004788013,0.001580609,0.001384572,1635.709,1626.126,0,99.42248,,
	08/27/2022 14:17:48.344,1.9887e+06,1619.79,250.00,6.00,-0.001059966,2.499988,-0.0026499,0.0004797138,0.0004768632,0.00157439,0.001379025,1629.326,1619.56,0,99.40577,,
	08/27/2022 16:05:35.323,1.99517e+06,1609.55,252.00,6.00,-0.001059973,2.499995,-0.00264993,0.0004766306,0.0004738498,0.00156435,0.001370195,1618.856,1609.322,0,99.41656,,
	08/27/2022 17:52:45.826,2.0016e+06,1600.93,254.00,6.00,-0.001059989,2.499982,-0.00264995,0.0004739665,0.0004713158,0.001555608,0.00136279,1609.804,1600.73,0,99.44073,,
	08/27/2022 19:39:23.514,2.008e+06,1592.25,256.00,6.00,-0.001060049,2.499997,-0.00265012,0.0004716366,0.0004687842,0.001547987,0.001355388,1601.929,1592.047,0,99.39521,,
	08/27/2022 21:25:19.521,2.01436e+06,1581.17,258.00,6.00,-0.00106005,2.499982,-0.00265011,0.000468401,0.0004655208,0.001537411,0.001345758,1590.928,1580.945,0,99.3851,,
	08/27/2022 23:10:34.914,2.02067e+06,1571.77,260.00,6.00,-0.001060072,2.499978,-0.00265016,0.0004655261,0.0004627651,0.001528022,0.001337643,1581.181,1571.561,0,99.40692,,
	08/28/2022 00:55:13.827,2.02695e+06,1562.27,262.00,6.00,-0.00106005,2.499988,-0.00265011,0.0004628615,0.0004599698,0.001519328,0.001329402,1572.139,1562.07,0,99.37527,,
	08/28/2022 02:39:15.086,2.03319e+06,1553.74,264.00,6.00,-0.001060054,2.499999,-0.00265013,0.0004599542,0.0004574581,0.001509844,0.001321974,1562.272,1553.541,0,99.45731,,
	08/28/2022 04:22:40.089,2.0394e+06,1543.95,266.00,6.00,-0.001060026,2.499999,-0.00265006,0.0004573241,0.0004545768,0.001501256,0.001313553,1553.348,1543.77,0,99.39926,,
	08/28/2022 06:05:29.689,2.04557e+06,1536.11,268.00,6.00,-0.001060072,2.499993,-0.00265017,0.000454752,0.0004522663,0.001492841,0.001306772,1544.625,1535.915,0,99.45338,,
	08/28/2022 07:47:48.000,2.0517e+06,1528.33,270.00,6.00,-0.001059993,2.499999,-0.00264998,0.0004524468,0.0004499721,0.001485294,0.00130009,1536.773,1528.139,0,99.45304,,
	08/28/2022 09:29:39.589,2.05782e+06,1521.52,272.00,6.00,-0.001060068,2.499974,-0.00265014,0.0004505617,0.0004479792,0.00147907,0.001294345,1530.386,1521.328,0,99.42684,,
	08/28/2022 11:11:02.654,2.0639e+06,1514.49,274.00,6.00,-0.001060007,2.499995,-0.00265001,0.0004484781,0.0004458866,0.001472236,0.001288298,1523.284,1514.267,0,99.42216,,
	08/28/2022 12:52:01.623,2.06996e+06,1509.21,276.00,6.00,-0.00105998,2.499999,-0.00264995,0.0004467305,0.0004443169,0.001466479,0.001283787,1517.308,1509.011,0,99.4597,,
	08/28/2022 14:32:38.399,2.07599e+06,1503.24,278.00,6.00,-0.001059993,2.499986,-0.00264997,0.0004450389,0.0004425583,0.00146088,0.00127876,1511.56,1503.061,0,99.4426,,
	08/28/2022 16:12:46.500,2.082e+06,1495.47,280.00,6.00,-0.001059996,2.499991,-0.00264998,0.0004428235,0.0004402805,0.001453611,0.001272088,1504.067,1495.271,0,99.42574,,
	08/28/2022 17:52:23.441,2.08798e+06,1487.83,282.00,6.00,-0.001060007,2.499997,-0.00265001,0.0004406266,0.0004380332,0.00144643,0.001265533,1496.608,1487.643,0,99.41142,,
	08/28/2022 19:31:27.802,2.09392e+06,1479.64,284.00,6.00,-0.001060027,2.499984,-0.00265005,0.0004381719,0.0004356278,0.00143838,0.001258481,1488.267,1479.446,0,99.41939,,
	08/28/2022 21:09:59.035,2.09983e+06,1471.2,286.00,6.00,-0.001060066,2.499991,-0.00265016,0.0004356751,0.0004331356,0.001430212,0.001251139,1479.774,1470.987,0,99.41712,,
	08/28/2022 22:47:58.468,2.10571e+06,1463.99,288.00,6.00,-0.001060022,2.499978,-0.00265003,0.0004334109,0.0004310147,0.001422819,0.001244918,1472.093,1463.794,0,99.44712,,
	08/29/2022 00:25:27.766,2.11156e+06,1456.68,290.00,6.00,-0.00106003,2.499991,-0.00265007,0.0004310685,0.0004288724,0.00141513,0.001238642,1464.145,1456.483,0,99.49053,,
	08/29/2022 02:02:25.804,2.11738e+06,1448.31,292.00,6.00,-0.001060075,2.499991,-0.00265018,0.0004287175,0.00042642,0.00140748,0.001231428,1456.2,1448.118,0,99.46409,,
	08/29/2022 03:38:49.458,2.12317e+06,1439.59,294.00,6.00,-0.001060058,2.499986,-0.00265013,0.0004261855,0.0004238581,0.001399217,0.001223899,1447.592,1439.416,0,99.45391,,
	08/29/2022 05:14:41.881,2.12892e+06,1431.95,296.00,6.00,-0.001060064,2.499982,-0.00265014,0.00042402,0.0004216092,0.001392127,0.001217302,1440.202,1431.787,0,99.43144,,
	08/29/2022 06:50:04.390,2.13464e+06,1424.83,298.00,6.00,-0.001060055,2.49998,-0.00265012,0.0004217395,0.0004195043,0.00138465,0.001211174,1432.49,1424.652,0,99.47001,,
	08/29/2022 08:25:01.935,2.14034e+06,1419.09,300.00,6.00,-0.001060061,2.499982,-0.00265013,0.0004200295,0.0004178077,0.00137904,0.001206262,1426.683,1418.904,0,99.47105,,
	08/29/2022 09:59:37.715,2.14601e+06,1414.01,302.00,6.00,-0.001060029,2.499999,-0.00265007,0.0004184206,0.0004163125,0.001373739,0.001201956,1421.2,1413.817,0,99.49615,,
	08/29/2022 11:33:51.838,2.15167e+06,1408.42,304.00,6.00,-0.001059989,2.499997,-0.00264997,0.000416803,0.0004146416,0.001368379,0.001197139,1415.668,1408.228,0,99.48145,,
	08/29/2022 13:07:45.848,2.1573e+06,1403.2,306.00,6.00,-0.001059993,2.499986,-0.00264997,0.0004153917,0.0004131082,0.001363721,0.001192735,1410.881,1403.007,0,99.45029,,
	08/29/2022 14:41:25.785,2.16292e+06,1400.19,308.00,6.00,-0.001059998,2.499991,-0.00264999,0.0004144255,0.000412231,0.001360495,0.001190314,1407.59,1400.021,0,99.47047,,
	08/29/2022 16:14:44.418,2.16852e+06,1393.91,310.00,6.00,-0.001059966,2.499999,-0.00264991,0.0004127061,0.0004103564,0.001354819,0.00118483,1401.749,1393.708,0,99.43066,,
	08/29/2022 17:47:33.094,2.17409e+06,1386.26,312.00,6.00,-0.001059989,2.499993,-0.00264997,0.0004104477,0.0004081058,0.001347434,0.001178238,1394.032,1386.07,0,99.42944,,
	08/29/2022 19:19:51.704,2.17963e+06,1378.74,314.00,6.00,-0.001060013,2.499991,-0.00265002,0.0004081631,0.0004059105,0.001339969,0.001171812,1386.318,1378.556,0,99.4481,,
	08/29/2022 20:51:39.357,2.18513e+06,1371.08,316.00,6.00,-0.001060068,2.49999,-0.00265016,0.0004059058,0.0004036711,0.001332597,0.001165188,1378.675,1370.918,0,99.44946,,
	08/29/2022 22:22:55.950,2.19061e+06,1363.72,318.00,6.00,-0.001060075,2.49999,-0.00265018,0.0004035839,0.0004015086,0.001324999,0.001158814,1370.784,1363.562,0,99.48578,,
	08/29/2022 23:53:43.988,2.19606e+06,1356.29,320.00,6.00,-0.001060038,2.499991,-0.00265009,0.0004015496,0.0003993268,0.001318347,0.001152419,1363.877,1356.143,0,99.44645,,
	08/30/2022 01:24:04.406,2.20148e+06,1349.56,322.00,6.00,-0.00106008,2.499986,-0.00265019,0.0003994718,0.0003973383,0.001311549,0.001146593,1356.83,1349.375,0,99.46593,,
	08/30/2022 02:53:57.367,2.20687e+06,1343.01,324.00,6.00,-0.001060073,2.499988,-0.00265017,0.0003974475,0.0003954094,0.001304951,0.001140917,1349.953,1342.833,0,99.48722,,
	08/30/2022 17:09:21.597,2.21216e+06,1258.06,326.00,6.00,-0.001060005,2.499997,-0.00265001,0.000395,0.0003707059,0.001298,0.001068595,1342.791,600.1427,0,93.84959,,
	08/30/2022 18:40:10.726,2.21761e+06,1334.86,328.00,6.00,-0.001059993,2.499988,-0.00264997,0.0003956169,0.0003929628,0.001299419,0.001133914,1343.649,1334.629,0,99.32912,,
	08/30/2022 20:08:44.191,2.22292e+06,1321.88,330.00,6.00,-0.001059985,2.49999,-0.00264995,0.0003914779,0.000389146,0.00128535,0.001122686,1329.618,1321.651,0,99.40434,,
	08/30/2022 21:36:46.246,2.2282e+06,1314.61,332.00,6.00,-0.001060019,2.499993,-0.00265004,0.000389371,0.0003870225,0.001278335,0.001116492,1322.503,1314.384,0,99.39684,,
	08/30/2022 23:04:21.897,2.23346e+06,1308.16,334.00,6.00,-0.001060078,2.499997,-0.00265019,0.000387391,0.0003851265,0.001271797,0.001110907,1315.795,1307.923,0,99.41544,,
	08/31/2022 00:31:28.345,2.23869e+06,1300.91,336.00,6.00,-0.001060047,2.499974,-0.00265009,0.0003852433,0.0003830008,0.00126477,0.00110467,1308.506,1300.681,0,99.41792,,
	08/31/2022 01:58:09.442,2.24389e+06,1295.28,338.00,6.00,-0.001060036,2.499986,-0.00265008,0.0003833862,0.0003813489,0.001258685,0.001099801,1302.221,1295.051,0,99.46857,,
	08/31/2022 03:24:27.820,2.24907e+06,1289.07,340.00,6.00,-0.001060044,2.499999,-0.00265011,0.0003816933,0.0003795067,0.001253125,0.001094433,1296.458,1288.839,0,99.42713,,
	08/31/2022 04:50:21.881,2.25422e+06,1283.81,342.00,6.00,-0.001060105,2.499995,-0.00265026,0.0003798554,0.0003779703,0.001247091,0.001089916,1290.226,1283.571,0,99.50372,,
	08/31/2022 06:15:54.192,2.25935e+06,1278.06,344.00,6.00,-0.001060083,2.499995,-0.0026502,0.0003783019,0.0003762841,0.001242002,0.001085019,1284.961,1277.832,0,99.46662,,
	08/31/2022 07:41:04.362,2.26446e+06,1272.92,346.00,6.00,-0.001060087,2.499995,-0.00265021,0.0003766661,0.0003747559,0.001236631,0.00108056,1279.369,1272.693,0,99.49286,,
	08/31/2022 09:05:56.218,2.26955e+06,1268.46,348.00,6.00,-0.001060041,2.499995,-0.0026501,0.00037542,0.0003734416,0.001232522,0.001076772,1275.13,1268.245,0,99.47301,,
	08/31/2022 10:30:30.753,2.27463e+06,1264.12,350.00,6.00,-0.001060024,2.499993,-0.00265005,0.0003741621,0.0003721481,0.001228373,0.001073052,1270.849,1263.88,0,99.46175,,
	08/31/2022 11:54:51.537,2.27969e+06,1260.95,352.00,6.00,-0.001060031,2.499993,-0.00265007,0.000373183,0.0003712198,0.001225086,0.00107042,1267.525,1260.73,0,99.47393,,
	08/31/2022 13:19:03.857,2.28474e+06,1259.61,354.00,6.00,-0.001059977,2.499991,-0.00264993,0.0003726911,0.0003708128,0.0012234,0.001069403,1265.831,1259.388,0,99.49602,,
	08/31/2022 14:43:03.308,2.28978e+06,1255.24,356.00,6.00,-0.00105998,2.499991,-0.00264994,0.0003714897,0.0003695257,0.001219395,0.00106567,1261.753,1255.011,0,99.47131,,
	08/31/2022 16:06:43.596,2.2948e+06,1250.8,358.00,6.00,-0.001059996,2.499997,-0.00264999,0.0003701359,0.0003682201,0.001214928,0.001061895,1257.143,1250.58,0,99.48242,,
	08/31/2022 17:30:05.499,2.2998e+06,1245.63,360.00,6.00,-0.001059963,2.499999,-0.00264991,0.0003686794,0.0003666977,0.001210148,0.001057429,1252.183,1245.412,0,99.46248,,
	08/31/2022 18:53:04.678,2.30478e+06,1239.79,362.00,6.00,-0.001060012,2.499997,-0.00265003,0.0003669337,0.0003649803,0.00120442,0.001052434,1246.267,1239.567,0,99.46765,,
	08/31/2022 20:15:41.278,2.30974e+06,1234.72,364.00,6.00,-0.001059979,2.499999,-0.00264995,0.000365334,0.0003634874,0.001199197,0.001048056,1240.803,1234.505,0,99.49455,,
	08/31/2022 21:37:57.906,2.31468e+06,1229.68,366.00,6.00,-0.001059994,2.499995,-0.00264998,0.0003638842,0.0003620094,0.001194409,0.001043738,1235.907,1229.462,0,99.48478,,
	08/31/2022 22:59:54.036,2.31959e+06,1224.43,368.00,6.00,-0.001059951,2.499984,-0.00264986,0.000362323,0.0003604558,0.001189296,0.001039239,1230.608,1224.215,0,99.48466,,
	09/01/2022 00:21:28.793,2.32449e+06,1219.09,370.00,6.00,-0.001059998,2.499991,-0.00264999,0.0003607917,0.0003588838,0.001184278,0.001034651,1225.417,1218.858,0,99.47117,,
	09/01/2022 01:42:41.784,2.32936e+06,1213.91,372.00,6.00,-0.001059966,2.499988,-0.0026499,0.0003591507,0.0003573606,0.001178916,0.001030164,1219.82,1213.705,0,99.50158,,
	09/01/2022 03:03:34.296,2.33421e+06,1208.59,374.00,6.00,-0.001060017,2.499991,-0.00265003,0.0003576232,0.000355784,0.001173903,0.001025581,1214.602,1208.365,0,99.48571,,
	09/01/2022 04:24:05.387,2.33904e+06,1203.23,376.00,6.00,-0.001059962,2.499999,-0.0026499,0.0003560622,0.0003542039,0.001168773,0.001020966,1209.316,1203.015,0,99.47808,,
	09/01/2022 05:44:15.340,2.34385e+06,1197.95,378.00,6.00,-0.001060008,2.499982,-0.00265,0.00035453,0.0003526631,0.001163728,0.001016448,1204.115,1197.738,0,99.47342,,
	09/01/2022 07:04:02.584,2.34864e+06,1192.11,380.00,6.00,-0.001059954,2.499995,-0.00264988,0.0003527941,0.0003509381,0.001158074,0.00101138,1198.239,1191.896,0,99.47392,,
	09/01/2022 08:23:27.491,2.35341e+06,1186.92,382.00,6.00,-0.001059979,2.499991,-0.00264994,0.0003511502,0.0003494114,0.001152699,0.00100691,1192.658,1186.708,0,99.50484,,
	09/01/2022 09:42:40.944,2.35816e+06,1185.42,384.00,6.00,-0.001059984,2.499986,-0.00264995,0.0003506071,0.0003489679,0.001150847,0.00100576,1190.797,1185.221,0,99.53248,,
	09/01/2022 11:01:43.892,2.3629e+06,1180.93,386.00,6.00,-0.001059948,2.499993,-0.00264986,0.0003496615,0.0003476476,0.001147707,0.001001921,1187.599,1180.728,0,99.42404,,
	09/01/2022 12:20:18.789,2.36762e+06,1173.81,388.00,6.00,-0.00106003,2.499999,-0.00265007,0.0003473897,0.0003455637,0.001140315,0.0009957405,1179.894,1173.611,0,99.47436,,
	09/01/2022 13:38:27.652,2.37231e+06,1167.65,390.00,6.00,-0.001059979,2.499991,-0.00264994,0.0003455432,0.0003437461,0.001134304,0.0009903937,1173.623,1167.448,0,99.47992,,
	09/01/2022 14:56:13.826,2.37697e+06,1162.03,392.00,6.00,-0.001060024,2.499997,-0.00265006,0.000343832,0.0003421051,0.001128703,0.0009855714,1167.862,1161.822,0,99.49777,,
	09/01/2022 16:13:38.195,2.38162e+06,1156.56,394.00,6.00,-0.00106004,2.499993,-0.00265009,0.0003422713,0.0003404943,0.001123601,0.0009808465,1162.57,1156.362,0,99.4808,,
	09/01/2022 17:30:40.079,2.38624e+06,1150.94,396.00,6.00,-0.001059994,2.499988,-0.00264997,0.0003406146,0.0003388296,0.001118165,0.0009759698,1156.911,1150.732,0,99.47595,,
	09/01/2022 18:47:20.768,2.39084e+06,1146.01,398.00,6.00,-0.001060013,2.49999,-0.00265002,0.0003390403,0.0003373834,0.001113027,0.0009717137,1151.576,1145.807,0,99.51128,,
	09/01/2022 20:03:40.051,2.39542e+06,1140.72,400.00,6.00,-0.00105997,2.499997,-0.00264992,0.0003374959,0.0003358185,0.001107975,0.0009671624,1146.305,1140.517,0,99.50298,,
	09/01/2022 21:19:44.545,2.39998e+06,1137.75,402.00,6.00,-0.001060003,2.499993,-0.00265,0.0003364711,0.0003349399,0.001104579,0.0009646525,1142.823,1137.541,0,99.5449,,
	09/01/2022 22:35:39.416,2.40454e+06,1135.06,404.00,6.00,-0.001059975,2.499993,-0.00264993,0.0003358269,0.0003341465,0.001102416,0.000962406,1140.613,1134.865,0,99.49965,,
	09/01/2022 23:51:20.174,2.40908e+06,1131.39,406.00,6.00,-0.001059943,2.499991,-0.00264985,0.0003347379,0.0003330605,0.001098817,0.0009592711,1136.898,1131.194,0,99.4989,,
	09/02/2022 01:06:47.136,2.41361e+06,1127.97,408.00,6.00,-0.001059952,2.499999,-0.00264988,0.0003337331,0.0003320648,0.00109553,0.000956388,1133.498,1127.778,0,99.50009,,
	09/02/2022 02:21:57.438,2.41812e+06,1123.39,410.00,6.00,-0.001059996,2.499976,-0.00264996,0.0003324745,0.0003307228,0.001091389,0.0009524639,1129.231,1123.186,0,99.47313,,
	09/02/2022 03:36:42.338,2.4226e+06,1116.23,412.00,6.00,-0.001060027,2.499991,-0.00265006,0.0003304117,0.0003286185,0.001084673,0.0009462398,1122.273,1116.042,0,99.45728,,
	09/02/2022 04:51:01.168,2.42706e+06,1110.31,414.00,6.00,-0.001060016,2.499999,-0.00265004,0.0003285429,0.0003268738,0.001078574,0.0009411103,1115.9,1110.113,0,99.49195,,
	09/02/2022 06:05:00.331,2.4315e+06,1105.76,416.00,6.00,-0.001059989,2.499999,-0.00264997,0.0003271792,0.0003255346,0.001074112,0.0009372074,1111.266,1105.573,0,99.49733,,
	09/02/2022 07:18:42.051,2.43592e+06,1101.26,418.00,6.00,-0.001060017,2.49999,-0.00265003,0.0003259403,0.0003242173,0.001070051,0.0009333638,1107.086,1101.066,0,99.47136,,
	09/02/2022 08:32:06.947,2.44033e+06,1097.58,420.00,6.00,-0.001060061,2.499993,-0.00265015,0.0003247434,0.0003231381,0.00106613,0.0009302519,1103.018,1097.382,0,99.50569,,
	09/02/2022 09:45:16.350,2.44471e+06,1093.91,422.00,6.00,-0.001060059,2.499999,-0.00265015,0.0003235175,0.000322051,0.001062095,0.0009270863,1098.841,1093.726,0,99.5467,,
	09/02/2022 10:58:14.362,2.44909e+06,1091.48,424.00,6.00,-0.001059994,2.499978,-0.00264996,0.0003227109,0.0003213207,0.001059433,0.0009249782,1096.096,1091.287,0,99.56921,,
	09/02/2022 12:11:02.906,2.45346e+06,1089.05,426.00,6.00,-0.00105998,2.499974,-0.00264992,0.0003220775,0.0003206059,0.001057331,0.0009229606,1093.921,1088.864,0,99.54308,,
	09/02/2022 13:23:46.017,2.45782e+06,1087.84,428.00,6.00,-0.00105994,2.499995,-0.00264984,0.0003217584,0.0003202385,0.001056218,0.0009219866,1092.849,1087.654,0,99.52763,,
	09/02/2022 14:36:19.406,2.46218e+06,1084.87,430.00,6.00,-0.001059963,2.499972,-0.00264988,0.0003209144,0.0003193671,0.001053426,0.0009194774,1089.959,1084.681,0,99.51785,,
	09/02/2022 15:48:41.129,2.46652e+06,1082.23,432.00,6.00,-0.001059921,2.499999,-0.0026498,0.0003200853,0.0003185873,0.001050687,0.0009172418,1087.138,1082.049,0,99.53201,,
	09/02/2022 17:00:47.282,2.47085e+06,1077.16,434.00,6.00,-0.001059979,2.499984,-0.00264993,0.0003187573,0.0003170883,0.001046342,0.0009128418,1082.615,1076.963,0,99.47637,,
	09/02/2022 18:12:31.196,2.47515e+06,1072.17,436.00,6.00,-0.001059956,2.499984,-0.00264987,0.0003171995,0.0003156245,0.001041262,0.0009085338,1077.329,1071.98,0,99.50345,,
	09/02/2022 19:23:55.088,2.47943e+06,1066.71,438.00,6.00,-0.00105997,2.49999,-0.00264991,0.0003156223,0.0003140226,0.001036099,0.0009038329,1071.994,1066.517,0,99.49315,,
	09/02/2022 20:35:01.555,2.4837e+06,1063.27,440.00,6.00,-0.001059943,2.499995,-0.00264985,0.0003145871,0.0003130123,0.001032692,0.0009009146,1068.46,1063.088,0,99.49941,,
	09/02/2022 21:45:55.673,2.48795e+06,1060.04,442.00,6.00,-0.00105994,2.499995,-0.00264984,0.0003136011,0.0003120579,0.001029443,0.0008981596,1065.13,1059.86,0,99.50792,,
	09/02/2022 22:56:31.340,2.49219e+06,1054.85,444.00,6.00,-0.001059982,2.49998,-0.00264993,0.0003121238,0.0003105344,0.00102461,0.0008936728,1060.12,1054.662,0,99.49079,,
	09/03/2022 00:06:50.122,2.49641e+06,1051.56,446.00,6.00,-0.001059945,2.499999,-0.00264986,0.0003110177,0.0003095631,0.001020979,0.0008908571,1056.351,1051.372,0,99.5323,,
	09/03/2022 01:16:55.066,2.50061e+06,1047.18,448.00,6.00,-0.001059989,2.499972,-0.00264994,0.0003098571,0.0003082774,0.001017158,0.0008871073,1052.402,1047.002,0,99.49019,,
	09/03/2022 02:26:41.812,2.5048e+06,1042.89,450.00,6.00,-0.001059993,2.499995,-0.00264998,0.000308637,0.0003070176,0.001013179,0.0008834251,1048.287,1042.719,0,99.47528,,
	09/03/2022 03:36:13.588,2.50897e+06,1039.36,452.00,6.00,-0.001059956,2.49998,-0.00264987,0.0003075353,0.0003059747,0.00100956,0.0008804015,1044.518,1039.179,0,99.49255,,
	09/03/2022 04:45:31.005,2.51313e+06,1036.01,454.00,6.00,-0.001059991,2.49998,-0.00264996,0.0003064518,0.000304991,0.001006005,0.0008775478,1040.818,1035.837,0,99.52332,,
	09/03/2022 05:54:35.458,2.51727e+06,1032.74,456.00,6.00,-0.001059966,2.499997,-0.00264991,0.0003054421,0.0003040245,0.001002678,0.0008747275,1037.415,1032.56,0,99.5359,,
	09/03/2022 07:03:25.716,2.5214e+06,1029.25,458.00,6.00,-0.001059956,2.49999,-0.00264988,0.0003043609,0.0003029929,0.0009991238,0.0008717211,1033.744,1029.078,0,99.55054,,
	09/03/2022 08:12:01.991,2.52552e+06,1025.69,460.00,6.00,-0.001059951,2.499976,-0.00264985,0.0003033203,0.0003019437,0.0009957248,0.0008686843,1030.203,1025.504,0,99.54614,,
	09/03/2022 09:20:24.669,2.52962e+06,1022.61,462.00,6.00,-0.001059917,2.499986,-0.00264978,0.0003024052,0.0003010375,0.0009927077,0.0008660767,1027.102,1022.435,0,99.54774,,
	09/03/2022 10:28:38.145,2.53372e+06,1019.98,464.00,6.00,-0.001059979,2.499999,-0.00264995,0.0003017876,0.0003002654,0.0009906564,0.000863871,1025.021,1019.803,0,99.49562,,
	09/03/2022 11:36:35.898,2.53779e+06,1015.82,466.00,6.00,-0.001059963,2.499993,-0.0026499,0.0003005851,0.0002990447,0.0009867192,0.0008602954,1020.93,1015.645,0,99.48756,,
	09/03/2022 12:44:14.873,2.54185e+06,1010.87,468.00,6.00,-0.001060003,2.499991,-0.00265,0.000299103,0.0002975907,0.0009818707,0.0008560018,1015.915,1010.695,0,99.49438,,
	09/03/2022 13:51:36.013,2.54589e+06,1006.59,470.00,6.00,-0.001060026,2.499995,-0.00265006,0.0002978581,0.0002963337,0.0009778007,0.0008523292,1011.698,1006.411,0,99.48822,,
	09/03/2022 14:58:39.189,2.54992e+06,1002.24,472.00,6.00,-0.001060021,2.499984,-0.00265004,0.0002964639,0.0002950561,0.0009732426,0.0008485769,1006.937,1002.069,0,99.52514,,
	09/03/2022 16:05:26.595,2.55392e+06,998.5787,474.00,6.00,-0.001059977,2.499991,-0.00264993,0.0002953151,0.0002939744,0.0009694832,0.0008454279,1003.05,998.4079,0,99.54602,,
	09/03/2022 17:11:58.185,2.55792e+06,994.3109,476.00,6.00,-0.001060013,2.49999,-0.00265002,0.0002941487,0.000292724,0.00096567,0.0008417654,999.0886,994.1493,0,99.51566,,
	09/03/2022 18:18:14.973,2.56189e+06,990.9922,478.00,6.00,-0.001060024,2.499997,-0.00265006,0.0002931198,0.0002917422,0.0009622852,0.0008389457,995.5875,990.8158,0,99.53002,,
	09/03/2022 19:24:17.062,2.56586e+06,987.3200,480.00,6.00,-0.001059991,2.49998,-0.00264996,0.0002919527,0.0002906524,0.0009584716,0.0008357362,991.599,987.1403,0,99.55464,,
	09/03/2022 20:30:05.953,2.5698e+06,984.0223,482.00,6.00,-0.001060012,2.499991,-0.00265002,0.0002910649,0.000289691,0.0009555402,0.0008329595,988.596,983.8392,0,99.52798,,
	09/03/2022 21:35:42.506,2.57374e+06,981.1829,484.00,6.00,-0.001059973,2.499982,-0.00264991,0.0002901798,0.0002888406,0.0009526381,0.0008304942,985.5741,981.0071,0,99.53849,,
	09/03/2022 22:41:09.710,2.57767e+06,978.8407,486.00,6.00,-0.001059989,2.499995,-0.00264997,0.0002895428,0.0002881606,0.0009505315,0.0008285345,983.4147,978.6751,0,99.52263,,
	09/03/2022 23:46:26.680,2.58159e+06,976.4604,488.00,6.00,-0.001059965,2.499986,-0.0026499,0.0002887664,0.0002874609,0.000947959,0.000826527,980.7777,976.289,0,99.54793,,
	09/04/2022 00:51:34.556,2.58549e+06,974.0923,490.00,6.00,-0.001059973,2.499995,-0.00264993,0.000288078,0.0002867566,0.0009456933,0.0008245083,978.4102,973.9223,0,99.54132,,
	09/04/2022 01:56:33.938,2.58939e+06,971.9011,492.00,6.00,-0.001059965,2.499986,-0.0026499,0.0002874649,0.0002861134,0.0009436532,0.0008226681,976.3352,971.7475,0,99.52984,,
	09/04/2022 03:01:24.520,2.59328e+06,969.8461,494.00,6.00,-0.001059943,2.499999,-0.00264986,0.0002868183,0.0002855007,0.0009415111,0.0008209062,974.131,969.6761,0,99.54061,,
	09/04/2022 04:06:08.153,2.59717e+06,968.2094,496.00,6.00,-0.001059926,2.49999,-0.0026498,0.0002863057,0.0002850148,0.0009398002,0.0008195339,972.3957,968.0429,0,99.54912,,
	09/04/2022 05:10:41.735,2.60104e+06,965.3599,498.00,6.00,-0.00105997,2.499997,-0.00264992,0.0002855323,0.0002841845,0.0009372587,0.0008171434,969.7529,965.1936,0,99.52798,,
	09/04/2022 06:15:04.223,2.6049e+06,962.5261,500.00,6.00,-0.001059951,2.49998,-0.00264986,0.0002847337,0.0002833492,0.0009346364,0.000814718,967.0704,962.3615,0,99.51376,,
	09/04/2022 07:19:14.985,2.60875e+06,959.7716,502.00,6.00,-0.001059956,2.499991,-0.00264988,0.0002838592,0.0002825392,0.0009317488,0.0008123764,964.1033,959.6085,0,99.53497,,
	09/04/2022 07:51:15.510,2.61067e+06,957.7438,503.00,6.00,-0.001059963,2.499995,-0.0026499,0.0002834057,0.0002819451,0.0009302564,0.0008106252,962.5499,957.5877,0,99.48463,,