File: Cell-test-data/SiMP-LFP-PS1/JB3_SiMP-LFP-PS1_Channel_76_StatisticByCycle.CSV
Date_Time                    ,Test Time (s),Step Time (s),Cycle Index,Step Index,Current (A),Voltage (V),Power (W),Charge Capacity (Ah),Discharge Capacity (Ah),Charge Energy (Wh),Discharge Energy (Wh),Charge Time (s),Discharge Time (s),V_Max_On_Cycle (V),Coulombic Efficiency (%),mAh/g
	08/06/2022 15:17:07.282,177862.879,62145.4,1,3,-0.0001589981,2.499984,-0.000397493,0.00320236,0.002744475,0.01064497,0.008141295,72508.04,62137.39,0,85.70164,,
	08/09/2022 11:24:30.915,423107,59985.6,3,3,-0.000158997,2.499997,-0.000397492,0.002715094,0.002649067,0.008740029,0.007816547,61474.62,59977.76,0,97.56818,,
	08/09/2022 20:27:06.618,455662,7908.36,5,6,-0.001059979,2.499984,-0.00264993,0.002367198,0.002328209,0.007706679,0.006750396,8040.036,7907.354,0,98.35295,,
	08/10/2022 05:06:24.635,486820,7660.032,7,6,-0.001060036,2.499995,-0.00265008,0.002294568,0.002255179,0.007468164,0.006530657,7793.508,7659.08,0,98.28339,,
	08/10/2022 13:30:21.401,517057,7456.89,9,6,-0.001059987,2.499997,-0.00264996,0.002228945,0.002195285,0.007256016,0.006357646,7570.624,7455.924,0,98.48988,,
	08/10/2022 21:43:01.434,546617,7276.44,11,6,-0.001059951,2.499997,-0.00264987,0.002179962,0.002142095,0.007091766,0.006207514,7404.019,7275.515,0,98.26295,,
	08/11/2022 05:41:29.841,575325,7047.49,13,6,-0.001059954,2.499984,-0.00264987,0.002114711,0.002074742,0.006880926,0.006010828,7182.553,7046.54,0,98.10995,,
	08/11/2022 13:23:44.359,603060,6828.8,15,6,-0.001059977,2.499999,-0.00264994,0.002041976,0.002010346,0.006650364,0.005824367,6935.741,6827.829,0,98.45104,,
	08/11/2022 20:55:08.251,630144,6664.71,17,6,-0.001059973,2.499999,-0.00264993,0.001996695,0.001962025,0.006499503,0.005689769,6781.497,6663.815,0,98.2636,,
	08/12/2022 04:12:11.037,656367,6433.62,19,6,-0.001059996,2.499988,-0.00264998,0.0019293,0.001894064,0.006284509,0.00548952,6552.873,6432.787,0,98.17359,,
	08/12/2022 11:14:36.051,681712,6236.488,21,6,-0.001059947,2.499991,-0.00264986,0.001866455,0.001836032,0.006084295,0.005320292,6339.539,6235.7,0,98.36997,,
	08/12/2022 18:08:31.494,706547,6126.43,23,6,-0.001059868,2.499988,-0.00264966,0.001834871,0.001803505,0.005977688,0.005235378,6231.89,6125.549,0,98.29053,,
	08/13/2022 00:51:53.347,730749,5952.272,25,6,-0.001059948,2.499997,-0.00264987,0.001783942,0.00175231,0.005812927,0.005086859,6058.942,5951.461,0,98.22683,,
	08/13/2022 07:22:55.360,754211,5772.097,27,6,-0.001059987,2.499995,-0.00264996,0.001728282,0.001699288,0.005634972,0.00493148,5869.877,5771.375,0,98.32238,,
	08/13/2022 13:43:15.407,777031,5641.68,29,6,-0.001059943,2.499986,-0.00264984,0.00168559,0.001660837,0.005497162,0.004823447,5724.892,5640.957,0,98.53149,,
	08/13/2022 19:54:34.117,799310,5480.9,31,6,-0.001059975,2.499997,-0.00264993,0.001639492,0.001613547,0.005348262,0.004684562,5568.295,5480.182,0,98.41747,,
	08/14/2022 01:56:09.332,821005,5346.48,33,6,-0.001060019,2.499993,-0.00265004,0.001599028,0.001573979,0.005217165,0.004570321,5430.937,5345.751,0,98.43344,,
	08/14/2022 07:48:22.664,842138,5210.18,35,6,-0.001060003,2.499995,-0.00265,0.00155713,0.001533849,0.005082539,0.004453401,5288.71,5209.453,0,98.50491,,
	08/14/2022 13:32:57.692,862813,5108.96,37,6,-0.001059975,2.49999,-0.00264993,0.001527224,0.001504071,0.004984254,0.004369887,5187.067,5108.325,0,98.48394,,
	08/14/2022 19:08:37.724,882953,4972.73,39,6,-0.00105994,2.499997,-0.00264985,0.001483435,0.00146394,0.004844625,0.004251353,5038.463,4972.103,0,98.68584,,
	08/15/2022 00:38:35.814,902751,4891.29,41,6,-0.001060013,2.499988,-0.00265002,0.001460504,0.001439968,0.00476772,0.00418552,4960.437,4890.621,0,98.59393,,
	08/15/2022 06:01:38.055,922133.652,4785.1,43,6,-0.001059934,2.499982,-0.00264982,0.001428328,0.001408659,0.004663591,0.0040949,4851.132,4784.458,0,98.6229,,
	08/15/2022 11:17:42.367,941097.964,4685.76,45,6,-0.001059934,2.499997,-0.00264983,0.001397305,0.001379438,0.004563135,0.00401064,4745.889,4685.161,0,98.72131,,
	08/15/2022 16:27:12.541,959668,4578.2,47,6,-0.00105994,2.499995,-0.00264984,0.001367139,0.001347792,0.004464989,0.003917603,4643.368,4577.568,0,98.58481,,
	08/15/2022 21:29:45.889,977821,4491.69,49,6,-0.001059909,2.499997,-0.00264977,0.001338481,0.001322309,0.004372525,0.003844995,4546.119,4491.118,0,98.79176,,
	08/16/2022 02:28:14.432,995730,4430.34,51,6,-0.001059928,2.499997,-0.00264982,0.001321533,0.001304199,0.004315394,0.003795426,4488.347,4429.786,0,98.6883,,
	08/16/2022 07:21:27.723,1.01332e+06,4348.19,53,6,-0.001059895,2.499991,-0.00264973,0.001297157,0.00128,0.0042357,0.003725693,4405.55,4347.576,0,98.67734,,
	08/16/2022 12:07:10.036,1030465.633,4221.29,55,6,-0.00105997,2.499995,-0.00264992,0.00125967,0.001242742,0.004116093,0.003612994,4278.512,4220.791,0,98.65617,,
	08/16/2022 16:45:47.030,1.04718e+06,4131.81,57,6,-0.001059959,2.499993,-0.00264989,0.001231192,0.001216371,0.004024666,0.003535221,4181.727,4131.293,0,98.79621,,
	08/16/2022 21:20:13.798,1.06365e+06,4085.46,59,6,-0.001059935,2.499988,-0.00264982,0.001215943,0.001202695,0.003974006,0.003498714,4129.772,4084.946,0,98.91048,,
	08/17/2022 01:51:42.076,1.07994e+06,4031.81,61,6,-0.00105987,2.49999,-0.00264966,0.001201648,0.00118686,0.003925848,0.003454682,4081.18,4031.317,0,98.76928,,
	08/17/2022 06:18:46.695,1.09596e+06,3964.4,63,6,-0.001059914,2.499997,-0.00264978,0.001181639,0.001167002,0.003860374,0.003397538,4013.226,3963.795,0,98.76131,,
	08/17/2022 10:40:41.691,1.11168e+06,3882.75,65,6,-0.001059873,2.499993,-0.00264968,0.001156806,0.001142947,0.003780245,0.003326322,3928.896,3882.182,0,98.80199,,
	08/17/2022 14:57:42.980,1.1271e+06,3814.87,67,6,-0.001059961,2.499991,-0.00264989,0.001136388,0.001123019,0.003713818,0.003268485,3859.561,3814.361,0,98.82354,,
	08/17/2022 19:08:41.933,1.14216e+06,3712.92,69,6,-0.001059937,2.499991,-0.00264983,0.001106724,0.001093052,0.003619148,0.003177155,3759.018,3712.399,0,98.76469,,
	08/17/2022 23:13:37.484,1.15685e+06,3637.97,71,6,-0.001059945,2.499993,-0.00264986,0.001082582,0.001070975,0.003542032,0.003111829,3676.908,3637.448,0,98.92788,,
	08/18/2022 03:14:54.960,1.17133e+06,3589.08,73,6,-0.001059928,2.499982,-0.0026498,0.001067629,0.001056566,0.003492826,0.003070893,3626.166,3588.585,0,98.96377,,
	08/18/2022 07:12:32.607,1.18559e+06,3525.93,75,6,-0.001059975,2.499999,-0.00264994,0.001049919,0.001038022,0.003435289,0.003016087,3566.089,3525.44,0,98.86683,,
	08/18/2022 11:06:13.716,1.19961e+06,3476.29,77,6,-0.001059938,2.499991,-0.00264984,0.001033903,0.001023371,0.003383306,0.002974057,3511.646,3475.8,0,98.98135,,
	08/18/2022 14:56:29.835,1.21343e+06,3419.95,79,6,-0.001059982,2.499997,-0.00264995,0.001017735,0.001006814,0.003330648,0.002925632,3456.699,3419.484,0,98.92695,,
	08/18/2022 18:43:19.146,1.22703e+06,3374.84,81,6,-0.00105997,2.499997,-0.00264992,0.001003535,0.0009935222,0.003284203,0.002887399,3408.504,3374.384,0,99.00225,,
	08/18/2022 22:26:45.034,1.24044e+06,3320.17,83,6,-0.001059963,2.499988,-0.00264989,0.0009875605,0.000977441,0.003232398,0.002839988,3354.189,3319.718,0,98.9753,,
	08/19/2022 02:06:37.122,1.25363e+06,3269.3,85,6,-0.001060005,2.499991,-0.00265,0.000972017,0.0009625079,0.003182112,0.00279614,3301.508,3268.864,0,99.02171,,
	08/19/2022 05:43:22.079,1.26664e+06,3223.04,87,6,-0.001060016,2.499997,-0.00265004,0.0009585426,0.0009488676,0.003138235,0.002756377,3255.684,3222.597,0,98.99066,,
	08/19/2022 09:16:59.313,1.27945e+06,3177.85,89,6,-0.001060027,2.499997,-0.00265006,0.0009446063,0.0009355724,0.003092934,0.002717544,3208.368,3177.408,0,99.04363,,
	08/19/2022 12:48:04.432,1.29212e+06,3144.13,91,6,-0.001059954,2.499993,-0.00264988,0.000934204,0.000925618,0.003058754,0.00268939,3173.031,3143.729,0,99.08093,,
	08/19/2022 16:16:55.833,1.30465e+06,3108.03,93,6,-0.001059991,2.49999,-0.00264997,0.0009237026,0.0009149967,0.003024142,0.00265902,3137.313,3107.63,0,99.0575,,
	08/19/2022 19:42:49.456,1.31701e+06,3064.16,95,6,-0.001059968,2.499995,-0.00264991,0.0009099759,0.0009020661,0.002979612,0.002620799,3090.65,3063.764,0,99.13078,,
	08/19/2022 23:05:57.114,1.32919e+06,3021.42,97,6,-0.001060003,2.49999,-0.00265,0.0008978086,0.0008895167,0.002940049,0.002583897,3049.406,3021.042,0,99.07642,,
	08/20/2022 02:26:17.827,1.34121e+06,2980.51,99,6,-0.001059971,2.499993,-0.00264992,0.0008859303,0.0008774515,0.002901355,0.002548703,3009.003,2980.119,0,99.04295,,
	08/20/2022 05:44:07.730,1.35308e+06,2944.43,101,6,-0.001059994,2.499984,-0.00264997,0.0008749949,0.000866842,0.002865731,0.002517809,2971.887,2944.057,0,99.06824,,
	08/20/2022 08:59:39.568,1.36482e+06,2911.52,103,6,-0.001059963,2.499995,-0.0026499,0.0008648874,0.0008571409,0.002832686,0.002489695,2937.548,2911.122,0,99.10433,,
	08/20/2022 12:12:56.704,1376412.301,2876.82,105,6,-0.001059971,2.49999,-0.00264992,0.0008548261,0.000846919,0.00279976,0.002459952,2903.403,2876.424,0,99.075,,
	08/20/2022 15:23:44.794,1.38786e+06,2840.763,107,6,-0.001059928,2.499991,-0.00264981,0.0008435128,0.0008363102,0.002763086,0.002428682,2864.949,2840.407,0,99.14613,,
	08/20/2022 18:32:22.792,1.39918e+06,2808.96,109,6,-0.001059971,2.499991,-0.00264992,0.0008343012,0.0008269613,0.002733003,0.002401598,2833.673,2808.57,0,99.12024,,
	08/20/2022 21:38:52.926,1.41037e+06,2778.78,111,6,-0.001059985,2.499999,-0.00264996,0.0008249552,0.0008180775,0.002702502,0.002375724,2801.963,2778.42,0,99.16629,,
	08/21/2022 00:43:23.793,1.42144e+06,2747.9,113,6,-0.001059957,2.499999,-0.00264989,0.0008159445,0.0008089679,0.002673029,0.002349117,2771.255,2747.523,0,99.14498,,
	08/21/2022 03:45:35.782,1.43237e+06,2712.15,115,6,-0.001060033,2.499986,-0.00265007,0.0008054954,0.0007984709,0.002639111,0.00231814,2735.905,2711.776,0,99.12792,,
	08/21/2022 06:45:37.672,1.44317e+06,2681.23,117,6,-0.001059985,2.499976,-0.00264994,0.0007961497,0.0007894026,0.002608698,0.002291576,2704.214,2680.891,0,99.15253,,
	08/21/2022 09:43:42.109,1.45386e+06,2653.27,119,6,-0.001059982,2.499999,-0.00264995,0.0007875341,0.0007811408,0.002580589,0.002267583,2674.933,2652.895,0,99.18819,,
	08/21/2022 12:40:03.032,1.46444e+06,2628.659,121,6,-0.001059979,2.499997,-0.00264994,0.0007801678,0.0007738672,0.002556459,0.002246633,2649.781,2628.315,0,99.19241,,
	08/21/2022 15:34:43.629,1.47492e+06,2602.67,123,6,-0.001059947,2.499997,-0.00264986,0.0007725246,0.0007662219,0.002531403,0.002224417,2623.81,2602.337,0,99.18414,,
	08/21/2022 18:27:32.142,1.48529e+06,2574.59,125,6,-0.00105998,2.499999,-0.00264995,0.0007640465,0.0007579468,0.002503805,0.002200127,2595.061,2574.234,0,99.20166,,
	08/21/2022 21:18:24.614,1.49554e+06,2544.85,127,6,-0.001059989,2.499976,-0.00264995,0.0007555,0.0007492225,0.002475976,0.002174482,2566.024,2544.52,0,99.16909,,
	08/22/2022 00:07:24.612,1.50568e+06,2517.4,129,6,-0.001059973,2.499988,-0.00264992,0.000747373,0.0007411441,0.002449496,0.002150811,2538.452,2517.058,0,99.16655,,
	08/22/2022 02:54:36.206,1.51571e+06,2491.14,131,6,-0.001060012,2.499997,-0.00265003,0.0007392549,0.0007334155,0.00242303,0.002128138,2510.911,2490.782,0,99.21011,,
	08/22/2022 05:39:59.616,1.52564e+06,2464.23,133,6,-0.00106005,2.499991,-0.00265012,0.0007313294,0.0007255096,0.002397259,0.002104894,2484.01,2463.923,0,99.20421,,
	08/22/2022 08:23:44.957,1.53546e+06,2441.3,135,6,-0.001060017,2.499997,-0.00265004,0.0007243634,0.0007187616,0.002374559,0.00208529,2460.358,2440.973,0,99.22665,,
	08/22/2022 11:06:09.749,1.54521e+06,2422.98,137,6,-0.001059961,2.499997,-0.0026499,0.0007185123,0.0007133312,0.002355302,0.002069795,2440.433,2422.676,0,99.27892,,
	08/22/2022 13:47:37.276,1.55489e+06,2408.42,139,6,-0.001059942,2.499991,-0.00264985,0.0007144673,0.0007090209,0.002341767,0.002057851,2426.601,2408.098,0,99.2377,,
	08/22/2022 16:27:43.258,1.5645e+06,2386.33,141,6,-0.00105997,2.499997,-0.00264992,0.0007079513,0.0007025295,0.002320388,0.002038771,2404.522,2386.029,0,99.23415,,
	08/22/2022 19:06:04.931,1.574e+06,2360.59,143,6,-0.001059985,2.499982,-0.00264994,0.000700069,0.0006949324,0.00229485,0.002016357,2377.731,2360.249,0,99.26627,,
	08/22/2022 21:43:02.062,1.58342e+06,2340.76,145,6,-0.001059971,2.499991,-0.00264992,0.0006941465,0.0006891299,0.002275477,0.001999452,2357.642,2340.483,0,99.2773,,
	08/23/2022 00:18:39.124,1.59275e+06,2320.29,147,6,-0.001060017,2.499993,-0.00265004,0.0006882166,0.0006831184,0.002256095,0.001981961,2337.517,2319.995,0,99.25921,,
	08/23/2022 02:52:49.002,1.602e+06,2298.21,149,6,-0.001060019,2.499995,-0.00265004,0.0006816953,0.000676583,0.002234846,0.001962699,2315.36,2297.887,0,99.25007,,
	08/23/2022 05:25:30.571,1.61117e+06,2276.89,151,6,-0.001059993,2.499997,-0.00264998,0.0006750679,0.0006703351,0.002213267,0.001944328,2292.814,2276.613,0,99.2989,,
	08/23/2022 07:56:46.578,1.62024e+06,2255.82,153,6,-0.001060022,2.499999,-0.00265005,0.00066884,0.0006641308,0.002193001,0.001926068,2271.721,2255.51,0,99.29591,,
	08/23/2022 10:26:46.821,1.62924e+06,2238.51,155,6,-0.00105991,2.49999,-0.00264976,0.000663383,0.000659005,0.002175205,0.001911413,2253.156,2238.198,0,99.34006,,
	08/23/2022 12:55:57.504,1638193.101,2225.53,157,6,-0.001059971,2.499991,-0.00264992,0.0006599803,0.0006551759,0.00216374,0.001900549,2241.557,2225.232,0,99.27204,,
	08/23/2022 15:23:46.067,1.64706e+06,2203.56,159,6,-0.001059989,2.499993,-0.00264997,0.0006535318,0.0006487261,0.00214278,0.00188149,2219.656,2203.26,0,99.26466,,
	08/23/2022 17:50:10.817,1.65585e+06,2183.76,161,6,-0.001059966,2.499999,-0.00264991,0.0006473752,0.0006429083,0.002122814,0.001864321,2198.769,2183.496,0,99.31001,,
	08/23/2022 20:15:20.875,1.66456e+06,2164.83,163,6,-0.001059971,2.499984,-0.00264991,0.0006418536,0.0006373169,0.002104723,0.001847976,2180.006,2164.52,0,99.29319,,
	08/23/2022 22:39:15.558,1.67319e+06,2145.23,165,6,-0.001060007,2.499972,-0.00264999,0.0006363523,0.0006315822,0.00208677,0.001831077,2161.351,2144.958,0,99.2504,,
	08/24/2022 01:01:46.268,1681741.865,2124.89,167,6,-0.001060007,2.499995,-0.00265001,0.0006300765,0.0006255836,0.002066397,0.001813315,2140.063,2124.604,0,99.28693,,
	08/24/2022 03:23:01.033,1.69022e+06,2106.81,169,6,-0.001059996,2.499991,-0.00264998,0.0006245448,0.0006202857,0.002048369,0.001797737,2121.269,2106.567,0,99.31805,,
	08/24/2022 05:43:04.929,1.69862e+06,2088.9,171,6,-0.00106007,2.499999,-0.00265017,0.0006193444,0.000615013,0.002031407,0.001782281,2103.67,2088.627,0,99.30066,,
	08/24/2022 08:02:00.553,1.70696e+06,2072.22,173,6,-0.001060077,2.499993,-0.00265019,0.0006144141,0.0006101073,0.002015327,0.001767961,2086.941,2071.951,0,99.29903,,
	08/24/2022 10:19:57.775,1.71523e+06,2058.2,175,6,-0.001060003,2.499993,-0.00265,0.0006102823,0.0006059575,0.002001765,0.00175595,2072.865,2057.946,0,99.29134,,
	08/24/2022 12:37:07.520,1.72346e+06,2049.59,177,6,-0.001059971,2.499982,-0.00264991,0.0006071269,0.0006033889,0.001991349,0.001748886,2062.041,2049.314,0,99.38432,,
	08/24/2022 14:53:37.307,1.73165e+06,2037.91,179,6,-0.001059985,2.499999,-0.00264996,0.0006037236,0.0005999635,0.001980017,0.001739112,2050.511,2037.65,0,99.37718,,
	08/24/2022 17:09:14.163,1.73979e+06,2023.09,181,6,-0.001059948,2.499993,-0.00264986,0.0005995898,0.0005955925,0.001966477,0.001726308,2036.49,2022.821,0,99.33333,,
	08/24/2022 19:23:45.315,1.74786e+06,2006.39,183,6,-0.001059984,2.499963,-0.00264992,0.0005947801,0.0005906783,0.001950789,0.001711803,2020.127,2006.131,0,99.31037,,
	08/24/2022 21:37:05.035,1.75586e+06,1987.94,185,6,-0.001060013,2.499995,-0.00265003,0.0005894287,0.0005852609,0.00193338,0.001695775,2001.947,1987.679,0,99.29291,,
	08/24/2022 23:49:12.228,1.76379e+06,1971.06,187,6,-0.001060015,2.499991,-0.00265003,0.0005841396,0.0005803113,0.00191617,0.001681101,1984.048,1970.811,0,99.34462,,
	08/25/2022 02:00:15.882,1.77165e+06,1955.55,189,6,-0.001060002,2.499988,-0.00264999,0.0005794798,0.000575744,0.001900976,0.001667694,1968.23,1955.302,0,99.35532,,
	08/25/2022 04:10:21.357,1.77946e+06,1942.03,191,6,-0.001060024,2.499997,-0.00265006,0.0005752218,0.0005717516,0.001887104,0.001655957,1953.762,1941.767,0,99.39673,,
	08/25/2022 06:19:32.381,1.78721e+06,1928.13,193,6,-0.00106003,2.499991,-0.00265007,0.0005712038,0.0005676702,0.001873954,0.001644113,1940.13,1927.874,0,99.38136,,
	08/25/2022 08:27:54.090,1.79491e+06,1915.95,195,6,-0.001060035,2.499988,-0.00265007,0.0005677876,0.0005640661,0.001862786,0.001633618,1928.554,1915.66,0,99.34457,,
	08/25/2022 10:35:28.590,1.80256e+06,1905.18,197,6,-0.001059965,2.499999,-0.00264991,0.0005642109,0.0005608934,0.001851023,0.001624469,1916.336,1904.927,0,99.41201,,
	08/25/2022 12:42:30.398,1.81019e+06,1898.974,199,6,-0.001059933,2.499991,-0.00264982,0.0005621761,0.0005590625,0.0018443,0.001619549,1909.423,1898.728,0,99.44614,,
	08/25/2022 14:48:59.098,1.81777e+06,1888.32,201,6,-0.001059895,2.49999,-0.00264973,0.0005591481,0.000555897,0.001834216,0.001610337,1899.097,1888.046,0,99.41856,,
	08/25/2022 16:54:40.950,1.82532e+06,1874.62,203,6,-0.001059977,2.499991,-0.00264993,0.0005557713,0.0005518766,0.001823111,0.00159861,1887.605,1874.398,0,99.29922,,
	08/25/2022 18:59:18.491,1.83279e+06,1859.76,205,6,-0.001059968,2.499991,-0.00264991,0.0005511251,0.0005475095,0.001808002,0.001585688,1871.881,1859.507,0,99.34396,,
	08/25/2022 21:02:57.373,1840212.97,1845.12,207,6,-0.00106001,2.499999,-0.00265002,0.0005466448,0.0005432206,0.001793421,0.00157295,1856.695,1844.885,0,99.37359,,
	08/25/2022 23:05:40.247,1.84758e+06,1831.268,209,6,-0.001060045,2.499997,-0.00265011,0.0005425622,0.0005391335,0.001780122,0.001560871,1842.871,1831.009,0,99.36805,,
	08/26/2022 01:07:28.903,1.85488e+06,1818.02,211,6,-0.001059998,2.49999,-0.00264998,0.0005387113,0.0005352465,0.001767597,0.00154947,1829.762,1817.784,0,99.35683,,
	08/26/2022 03:08:25.127,1.86214e+06,1804.72,213,6,-0.001060045,2.499997,-0.00265011,0.000534837,0.0005313308,0.001754964,0.001537994,1816.588,1804.485,0,99.34444,,
	08/26/2022 05:08:24.918,1.86934e+06,1790.84,215,6,-0.001060091,2.499988,-0.00265021,0.0005304938,0.000527275,0.001740796,0.00152601,1801.885,1790.613,0,99.39324,,
	08/26/2022 07:07:38.568,1.87649e+06,1780.06,217,6,-0.001060033,2.49999,-0.00265007,0.0005274378,0.0005240915,0.001730737,0.001516809,1791.523,1779.841,0,99.36557,,
	08/26/2022 09:06:12.519,1.88361e+06,1770.47,219,6,-0.001060035,2.49997,-0.00265006,0.0005244222,0.0005212486,0.001720864,0.001508553,1781.232,1770.246,0,99.39484,,
	08/26/2022 11:04:07.164,1.89068e+06,1761.19,221,6,-0.001060045,2.499988,-0.0026501,0.000521427,0.0005185087,0.00171103,0.001500598,1771.047,1760.947,0,99.44032,,
	08/26/2022 13:01:28.684,1.89772e+06,1752.95,223,6,-0.001059975,2.499988,-0.00264992,0.000519195,0.0005160721,0.001703643,0.001493673,1763.415,1752.725,0,99.39852,,
	08/26/2022 14:58:21.996,1.90474e+06,1746.63,225,6,-0.001059979,2.499997,-0.00264994,0.0005172213,0.0005142071,0.001697066,0.001488436,1756.726,1746.397,0,99.41724,,
	08/26/2022 16:54:40.071,1.91172e+06,1736.43,227,6,-0.001059945,2.499988,-0.00264985,0.0005143299,0.0005112058,0.001687566,0.00147968,1746.906,1736.209,0,99.3926,,
	08/26/2022 18:50:08.722,1.91864e+06,1723.37,229,6,-0.001059985,2.499991,-0.00264995,0.000510511,0.0005073726,0.001675141,0.001468335,1733.923,1723.143,0,99.38524,,
	08/26/2022 20:44:49.634,1.92553e+06,1711.87,231,6,-0.001060036,2.49998,-0.00265007,0.000507231,0.0005039993,0.001664423,0.001458436,1722.813,1711.666,0,99.36286,,
	08/26/2022 22:38:36.882,1.93235e+06,1698.1,233,6,-0.001060003,2.499995,-0.00265,0.0005030365,0.0004999409,0.00165079,0.001446371,1708.575,1697.868,0,99.38464,,
	08/27/2022 00:31:33.432,1.93913e+06,1685.77,235,6,-0.001060066,2.499988,-0.00265015,0.0004994205,0.0004963092,0.001639029,0.001435642,1696.279,1685.534,0,99.37701,,
	08/27/2022 02:23:45.995,1.94586e+06,1675.31,237,6,-0.001060077,2.499999,-0.00265019,0.0004962865,0.0004932543,0.001628773,0.001426699,1685.656,1675.111,0,99.38902,,
	08/27/2022 04:15:19.306,1.95255e+06,1666.08,239,6,-0.001060031,2.499991,-0.00265007,0.0004933123,0.0004905164,0.001619042,0.001418681,1675.553,1665.861,0,99.43323,,
	08/27/2022 06:06:09.784,1.95921e+06,1654.67,241,6,-0.001060024,2.499991,-0.00265005,0.000490055,0.0004871617,0.001608422,0.001408772,1664.482,1654.468,0,99.4096,,
	08/27/2022 07:56:18.423,1.96581e+06,1645.13,243,6,-0.001060057,2.499982,-0.00265012,0.0004870027,0.0004843682,0.001598459,0.001400606,1654.152,1644.935,0,99.45902,,
	08/27/2022 09:45:53.955,1.97239e+06,1636.82,245,6,-0.001060041,2.499997,-0.0026501,0.0004847142,0.0004819007,0.001590926,0.001393437,1646.37,1636.597,0,99.41956,,
	08/27/2022 11:35:00.086,1.97894e+06,1629.93,247,6,-0.001060003,2.499965,-0.00264997,0.0004826745,0.0004798665,0.001584216,0.001387643,1639.401,1629.716,0,99.41824,,
	08/27/2022 13:23:38.958,1.98545e+06,1623.68,249,6,-0.001060024,2.499959,-0.00265002,0.0004806866,0.000478032,0.001577679,0.001382438,1632.645,1623.491,0,99.44775,,
	08/27/2022 15:11:46.638,1.99194e+06,1614.16,251,6,-0.001059994,2.499995,-0.00264998,0.0004781013,0.0004752044,0.001569159,0.001374161,1623.843,1613.931,0,99.39408,,
	08/27/2022 16:59:14.836,1.99839e+06,1604.959,253,6,-0.001060031,2.499984,-0.00265006,0.0004752865,0.0004725063,0.001559954,0.001366249,1614.292,1604.77,0,99.41505,,
	08/27/2022 18:46:09.059,2.0048e+06,1597.22,255,6,-0.001059989,2.499993,-0.00264997,0.0004727788,0.0004702221,0.001551725,0.001359608,1605.743,1596.997,0,99.45921,,
	08/27/2022 20:32:27.141,2.01118e+06,1586.88,257,6,-0.001060013,2.499986,-0.00265002,0.0004700277,0.0004671994,0.001542712,0.001350712,1596.472,1586.669,0,99.39826,,
	08/27/2022 22:18:01.693,2017517.29,1576.5,259,6,-0.001060069,2.499988,-0.00265016,0.0004667609,0.000464156,0.00153205,0.00134172,1585.396,1576.299,0,99.44192,,
	08/28/2022 00:02:59.171,2.02381e+06,1567.861,261,6,-0.001060029,2.499999,-0.00265007,0.0004640374,0.0004616179,0.001523158,0.001334245,1576.139,1567.67,0,99.47858,,
	08/28/2022 01:47:18.802,2.03007e+06,1558.09,263,6,-0.001060094,2.499995,-0.00265023,0.0004612316,0.000458742,0.001514008,0.001325782,1566.618,1557.881,0,99.46023,,
	08/28/2022 03:31:02.519,2.0363e+06,1549.04,265,6,-0.001060026,2.499978,-0.00265004,0.00045873,0.000456069,0.001505845,0.001317905,1558.128,1548.822,0,99.41991,,
	08/28/2022 05:14:08.696,2.04248e+06,1539.93,267,6,-0.001060086,2.499978,-0.00265019,0.0004558866,0.0004533841,0.001496538,0.001310051,1548.447,1539.735,0,99.45108,,
	08/28/2022 06:56:42.634,2.04864e+06,1532.07,269,6,-0.001060055,2.499991,-0.00265013,0.0004535666,0.0004510712,0.001488968,0.001303303,1540.602,1531.856,0,99.44984,,
	08/28/2022 08:38:47.438,2.05476e+06,1525.33,271,6,-0.001060108,2.499993,-0.00265026,0.000451588,0.0004491064,0.001482452,0.0012976,1533.851,1525.152,0,99.45048,,
	08/28/2022 10:20:24.606,2.06086e+06,1518.34,273,6,-0.001060015,2.499986,-0.00265002,0.0004493928,0.0004470267,0.001475248,0.001291589,1526.419,1518.12,0,99.47347,,
	08/28/2022 12:01:34.831,2.06693e+06,1512.07,275,6,-0.001059994,2.499997,-0.00264998,0.0004474669,0.0004451767,0.001468911,0.001286229,1519.827,1511.883,0,99.48817,,
	08/28/2022 13:42:23.358,2.07298e+06,1506.66,277,6,-0.001060021,2.499997,-0.00265005,0.0004459888,0.0004435696,0.001464015,0.001281664,1514.807,1506.472,0,99.45755,,
	08/28/2022 15:22:46.713,2.079e+06,1499.98,279,6,-0.00105998,2.499997,-0.00264995,0.000444022,0.0004416065,0.001457538,0.001275978,1508.094,1499.796,0,99.456,,
	08/28/2022 17:02:38.737,2.08499e+06,1491.94,281,6,-0.001060033,2.499993,-0.00265008,0.0004416328,0.0004392432,0.001449732,0.001269042,1500.032,1491.739,0,99.45894,,
	08/28/2022 18:41:59.657,2.09096e+06,1483.87,283,6,-0.001060008,2.499993,-0.00265001,0.000439299,0.0004368737,0.001442089,0.001262151,1492.104,1483.682,0,99.44793,,
	08/28/2022 20:20:47.818,2.09688e+06,1475.81,285,6,-0.001060013,2.499999,-0.00265003,0.0004369106,0.0004344942,0.001434247,0.001255136,1483.962,1475.605,0,99.44693,,
	08/28/2022 21:59:02.137,2.10278e+06,1467.525,287,6,-0.001060036,2.499999,-0.00265009,0.0004343629,0.0004320562,0.001425911,0.001247979,1475.321,1467.335,0,99.46894,,
	08/28/2022 23:36:46.700,2.10864e+06,1459.79,289,6,-0.001060058,2.499999,-0.00265014,0.0004322597,0.0004297929,0.001419037,0.00124135,1468.2,1459.601,0,99.42933,,
	08/29/2022 01:14:01.046,2.11448e+06,1452.33,291,6,-0.001060103,2.499991,-0.00265025,0.0004300474,0.0004276049,0.001411802,0.001234916,1460.693,1452.139,0,99.43204,,
	08/29/2022 02:50:42.018,2.12028e+06,1443.61,293,6,-0.001060087,2.499991,-0.00265021,0.0004275938,0.0004250375,0.001403822,0.001227384,1452.366,1443.416,0,99.40218,,
	08/29/2022 04:26:49.487,2.12605e+06,1436.11,295,6,-0.001060031,2.499997,-0.00265007,0.0004250428,0.0004228171,0.001395487,0.001220836,1443.688,1435.924,0,99.47637,,
	08/29/2022 06:02:26.840,2.13178e+06,1428.37,297,6,-0.001060043,2.499991,-0.0026501,0.0004228933,0.000420549,0.001388434,0.001214218,1436.38,1428.212,0,99.44566,,
	08/29/2022 07:37:35.912,2.13749e+06,1421.86,299,6,-0.001060055,2.499984,-0.00265012,0.0004208367,0.0004186279,0.001381696,0.001208615,1429.426,1421.681,0,99.47514,,
	08/29/2022 09:12:22.245,2.14318e+06,1416.27,301,6,-0.001060043,2.499995,-0.0026501,0.0004191773,0.0004169724,0.001376227,0.00120386,1423.767,1416.068,0,99.47398,,
	08/29/2022 10:46:47.509,2.14884e+06,1410.82,303,6,-0.001060008,2.499993,-0.00265001,0.000417689,0.0004153663,0.001371318,0.001199217,1418.713,1410.641,0,99.44391,,
	08/29/2022 12:20:51.524,2.15449e+06,1406.18,305,6,-0.001059987,2.499991,-0.00264996,0.0004160951,0.0004139948,0.001366053,0.001195274,1413.245,1405.999,0,99.49524,,
	08/29/2022 13:54:37.781,2160113.378,1402.46,307,6,-0.001059961,2.49999,-0.00264989,0.0004149084,0.0004128903,0.001362138,0.001192204,1409.234,1402.292,0,99.5136,,
	08/29/2022 15:28:08.518,2165724.115,1397.41,309,6,-0.001060035,2.499999,-0.00265009,0.0004136892,0.000411406,0.001358061,0.001187918,1405.09,1397.24,0,99.44807,,
	08/29/2022 17:01:12.553,2.17131e+06,1390.25,311,6,-0.00105997,2.49999,-0.00264991,0.0004115092,0.0004092886,0.001350894,0.001181697,1397.641,1390.065,0,99.46036,,
	08/29/2022 18:33:46.408,2.17686e+06,1382.73,313,6,-0.001060007,2.499999,-0.00265002,0.0004093536,0.0004070741,0.001343851,0.001175246,1390.331,1382.526,0,99.44315,,
	08/29/2022 20:05:49.372,2.18238e+06,1375.14,315,6,-0.001060024,2.49999,-0.00265005,0.0004069747,0.0004048565,0.001336081,0.001168673,1382.288,1374.958,0,99.47952,,
	08/29/2022 21:37:21.218,2187876.815,1366.99,317,6,-0.001060029,2.499978,-0.00265005,0.0004047199,0.0004024669,0.001328725,0.001161623,1374.644,1366.817,0,99.44333,,
	08/29/2022 23:08:23.605,2193339.202,1359.82,319,6,-0.001060031,2.499982,-0.00265006,0.0004026456,0.0004003587,0.001321935,0.001155427,1367.607,1359.65,0,99.43202,,
	08/30/2022 00:38:57.789,2.19877e+06,1353.21,321,6,-0.001060029,2.499991,-0.00265006,0.0004005227,0.0003984065,0.001314989,0.001149741,1360.379,1353.037,0,99.47164,,
	08/30/2022 02:09:04.168,2.20418e+06,1346.321,323,6,-0.001060058,2.499991,-0.00265014,0.0003984074,0.0003963843,0.001308093,0.001143783,1353.212,1346.146,0,99.4922,,
	08/30/2022 03:38:43.309,2209558.906,1338.96,325,6,-0.001060128,2.499995,-0.00265031,0.0003964989,0.0003942099,0.001301844,0.001137409,1346.745,1338.764,0,99.4227,,
	08/30/2022 17:55:31.922,2.21493e+06,1372.09,327,6,-0.001059994,2.499991,-0.00264998,0.0004115913,0.0004039224,0.001356721,0.001166662,1397.918,1371.839,0,98.13677,,
	08/30/2022 19:24:32.412,2.22027e+06,1326.47,329,6,-0.001060036,2.499991,-0.00265008,0.0003930402,0.0003904953,0.001290601,0.001126641,1334.922,1326.229,0,99.35252,,
	08/30/2022 20:52:48.835,2.22557e+06,1318.41,331,6,-0.001060008,2.499986,-0.00265001,0.000390391,0.0003881366,0.00128172,0.001119735,1325.932,1318.181,0,99.42254,,
	08/30/2022 22:20:37.660,2.23084e+06,1311.9,333,6,-0.001060054,2.499997,-0.00265013,0.0003884111,0.0003862301,0.001275167,0.001114165,1319.231,1311.673,0,99.43848,,
	08/30/2022 23:47:58.633,2.23608e+06,1304.51,335,6,-0.001060068,2.499991,-0.00265016,0.0003862461,0.0003840582,0.001268057,0.001107766,1311.929,1304.287,0,99.43354,,
	08/31/2022 01:14:51.651,2241290.053,1298.08,337,6,-0.001060041,2.499961,-0.00265006,0.0003841869,0.0003821595,0.001261316,0.001102186,1304.933,1297.85,0,99.47229,,
	08/31/2022 02:41:22.002,2.24648e+06,1292.68,339,6,-0.001060073,2.499995,-0.00265018,0.0003826118,0.0003805699,0.001256138,0.001097534,1299.582,1292.448,0,99.46633,,
	08/31/2022 04:07:27.544,2.25165e+06,1286.28,341,6,-0.001060059,2.499991,-0.00265014,0.0003807269,0.0003786932,0.001249966,0.001092053,1293.148,1286.048,0,99.46585,,
	08/31/2022 05:33:10.886,2.25679e+06,1280.85,343,6,-0.001060143,2.499972,-0.00265033,0.0003791576,0.0003771049,0.00124481,0.001087381,1287.858,1280.62,0,99.4586,,
	08/31/2022 06:58:31.797,2.26191e+06,1275.2,345,6,-0.001060041,2.499991,-0.00265009,0.0003774705,0.000375443,0.001239263,0.001082565,1282.125,1274.987,0,99.46286,,
	08/31/2022 08:23:32.339,2.26701e+06,1270.62,347,6,-0.001060044,2.499999,-0.00265011,0.0003759835,0.0003740855,0.001234383,0.001078644,1277.068,1270.397,0,99.49519,,
	08/31/2022 09:48:15.520,2272093.922,1266.37,349,6,-0.001060058,2.49998,-0.00265012,0.0003746955,0.0003728227,0.001230132,0.001074974,1272.65,1266.155,0,99.50018,,
	08/31/2022 11:12:42.795,2.27716e+06,1262.82,351,6,-0.001060035,2.499997,-0.00265008,0.0003736072,0.0003717746,0.001226515,0.001072018,1268.95,1262.599,0,99.50949,,
	08/31/2022 12:36:58.139,2.28222e+06,1260.3,353,6,-0.001060016,2.499978,-0.00265002,0.0003727362,0.0003710237,0.001223603,0.001069935,1266.014,1260.093,0,99.54054,,
	08/31/2022 14:01:06.040,2.28726e+06,1257.669,355,6,-0.001060001,2.499995,-0.00265,0.0003722284,0.0003702425,0.00122185,0.001067781,1264.239,1257.447,0,99.46648,,
	08/31/2022 15:24:55.390,2.29229e+06,1252.62,357,6,-0.001059966,2.49999,-0.0026499,0.0003707343,0.0003687603,0.001216902,0.001063431,1259.178,1252.397,0,99.46754,,
	08/31/2022 16:48:27.411,2.29731e+06,1248.67,359,6,-0.001059952,2.49999,-0.00264987,0.0003694738,0.0003675808,0.001212747,0.001060038,1254.869,1248.444,0,99.48765,,
	08/31/2022 18:11:38.345,2.3023e+06,1242.93,361,6,-0.001059963,2.499999,-0.00264991,0.0003679254,0.0003658997,0.001207677,0.001055143,1249.624,1242.715,0,99.44943,,
	08/31/2022 19:34:25.477,2.30726e+06,1237.03,363,6,-0.001059979,2.49997,-0.00264992,0.0003661118,0.0003641672,0.001201743,0.001050051,1243.478,1236.809,0,99.46887,,
	08/31/2022 20:56:52.031,2.31221e+06,1232.03,365,6,-0.00105997,2.499991,-0.00264992,0.0003646356,0.0003626887,0.001196895,0.001045734,1238.458,1231.795,0,99.46608,,
	08/31/2022 22:18:58.725,2.31714e+06,1227.09,367,6,-0.00105998,2.499982,-0.00264993,0.0003631621,0.0003612445,0.001192053,0.001041528,1233.453,1226.884,0,99.47197,,
	08/31/2022 23:40:44.018,2.32204e+06,1221.72,369,6,-0.001059959,2.499984,-0.00264988,0.0003615529,0.0003596674,0.00118677,0.001036929,1227.988,1221.513,0,99.47851,,
	09/01/2022 01:02:07.789,2.32693e+06,1216.21,371,6,-0.001060005,2.499972,-0.00264998,0.0003599447,0.0003580391,0.001181508,0.001032172,1222.514,1216.002,0,99.47057,,
	09/01/2022 02:23:10.835,2.33179e+06,1211.17,373,6,-0.001059961,2.499993,-0.0026499,0.0003585033,0.0003565465,0.001176791,0.001027825,1217.601,1210.96,0,99.45418,,
	09/01/2022 03:43:52.578,2.33663e+06,1205.84,375,6,-0.00105998,2.499976,-0.00264992,0.0003569011,0.0003549867,0.001171524,0.001023268,1212.17,1205.643,0,99.46362,,
	09/01/2022 05:04:13.002,2.34145e+06,1200.71,377,6,-0.001059966,2.499986,-0.0026499,0.0003552744,0.0003534693,0.001166187,0.001018812,1206.631,1200.505,0,99.49191,,
	09/01/2022 06:24:11.972,2346250.374,1195.13,379,6,-0.001059977,2.499997,-0.00264994,0.0003536734,0.0003518295,0.00116094,0.001014003,1201.22,1194.925,0,99.47861,,
	09/01/2022 07:43:47.647,2351026.049,1189.42,381,6,-0.001059998,2.49999,-0.00264998,0.0003519516,0.000350146,0.001155318,0.001009083,1195.377,1189.205,0,99.48698,,
	09/01/2022 09:03:04.455,2.35578e+06,1185.73,383,6,-0.001059979,2.49999,-0.00264994,0.0003506574,0.0003490533,0.001151091,0.001005932,1190.967,1185.519,0,99.54255,,
	09/01/2022 10:22:15.113,2.36053e+06,1184.1,385,6,-0.001059938,2.499999,-0.00264984,0.0003503169,0.0003485711,0.001149854,0.001004625,1189.809,1183.887,0,99.50165,,
	09/01/2022 11:41:04.823,2.36526e+06,1177.22,387,6,-0.001059951,2.499999,-0.00264988,0.0003484362,0.0003465565,0.001143714,0.0009986705,1183.445,1177.02,0,99.46052,,
	09/01/2022 12:59:26.108,2.36996e+06,1170.54,389,6,-0.001059921,2.499999,-0.0026498,0.0003463963,0.0003445897,0.00113708,0.0009928604,1176.516,1170.339,0,99.47846,,
	09/01/2022 14:17:23.675,2.37464e+06,1164.79,391,6,-0.00106005,2.499991,-0.00265012,0.0003447577,0.0003429124,0.001131735,0.0009879376,1170.979,1164.578,0,99.46475,,
	09/01/2022 15:34:58.796,2.3793e+06,1159.37,393,6,-0.001059998,2.499999,-0.00264999,0.0003430968,0.0003413156,0.001126301,0.000983257,1165.324,1159.175,0,99.48084,,
	09/01/2022 16:52:11.973,2.38393e+06,1153.72,395,6,-0.001060005,2.499995,-0.00265001,0.0003414569,0.0003396542,0.001120926,0.0009784029,1159.785,1153.518,0,99.47205,,
	09/01/2022 18:09:02.915,2.38854e+06,1148.444,397,6,-0.001060035,2.499999,-0.00265009,0.0003397955,0.0003381,0.001115492,0.0009738373,1154.136,1148.248,0,99.50104,,
	09/01/2022 19:25:32.782,2.39313e+06,1142.87,399,6,-0.001060044,2.499988,-0.0026501,0.0003382528,0.0003364619,0.001110462,0.0009690201,1148.891,1142.664,0,99.47054,,
	09/01/2022 20:41:43.714,2.3977e+06,1138.92,401,6,-0.001060029,2.499997,-0.00265007,0.0003369615,0.0003352977,0.001106195,0.0009656678,1144.483,1138.731,0,99.50626,,
	09/01/2022 21:57:43.486,2.40226e+06,1136.77,403,6,-0.001060007,2.499988,-0.00265,0.0003362074,0.0003346517,0.001103687,0.0009638453,1141.912,1136.562,0,99.53729,,
	09/01/2022 23:13:31.627,2.40681e+06,1133.22,405,6,-0.001059945,2.499999,-0.00264986,0.0003352712,0.0003336064,0.001100591,0.000960843,1138.746,1133.026,0,99.50347,,
	09/02/2022 00:29:05.421,2411343.823,1129.95,407,6,-0.001060003,2.499965,-0.00264997,0.0003341892,0.0003326375,0.001097017,0.0009580567,1135.044,1129.744,0,99.53568,,
	09/02/2022 01:44:24.559,2.41586e+06,1125.94,409,6,-0.001059991,2.499997,-0.00264997,0.0003330669,0.0003314671,0.001093338,0.000954648,1131.224,1125.746,0,99.51967,,
	09/02/2022 02:59:23.587,2.42036e+06,1119.98,411,6,-0.001060061,2.499999,-0.00265015,0.0003314878,0.0003297188,0.00108818,0.0009494988,1125.912,1119.782,0,99.46633,,
	09/02/2022 04:13:54.713,2.42483e+06,1113.22,413,6,-0.001060022,2.499997,-0.00265005,0.0003294292,0.0003277257,0.001081477,0.0009436177,1118.909,1113.023,0,99.4829,,
	09/02/2022 05:28:03.048,2.42928e+06,1108.11,415,6,-0.00106003,2.499995,-0.00265007,0.0003278443,0.0003262271,0.001076294,0.0009392223,1113.527,1107.912,0,99.50673,,
	09/02/2022 06:41:53.454,2.43371e+06,1103.91,417,6,-0.001060061,2.49998,-0.00265013,0.000326497,0.0003249948,0.001071875,0.0009356248,1108.966,1103.718,0,99.5399,,
	09/02/2022 07:55:26.096,2.43812e+06,1099.29,419,6,-0.001060066,2.499978,-0.00265014,0.0003251808,0.0003236343,0.001067564,0.0009316656,1104.502,1099.098,0,99.52443,,
	09/02/2022 09:08:43.342,2.44252e+06,1095.3,421,6,-0.001060087,2.499995,-0.00265021,0.0003240988,0.0003224658,0.001064011,0.0009282783,1100.846,1095.11,0,99.49615,,
	09/02/2022 10:21:46.538,2.4469e+06,1092.43,423,6,-0.001060003,2.499978,-0.00264998,0.0003231176,0.0003216131,0.001060773,0.0009258109,1097.511,1092.237,0,99.53439,,
	09/02/2022 11:34:39.694,2.45128e+06,1089.87,425,6,-0.001059975,2.499997,-0.00264993,0.0003224539,0.0003208447,0.001058578,0.0009236205,1095.212,1089.674,0,99.50098,,
	09/02/2022 12:47:25.095,2.45564e+06,1088.59,427,6,-0.001059952,2.499999,-0.00264988,0.0003219021,0.0003204686,0.001056714,0.0009226081,1093.342,1088.413,0,99.55467,,
	09/02/2022 14:00:04.327,2.46e+06,1086.36,429,6,-0.001059965,2.499991,-0.0026499,0.0003214284,0.0003198012,0.00105512,0.0009207418,1091.708,1086.176,0,99.49374,,
	09/02/2022 15:12:31.529,2464349.931,1083.39,431,6,-0.001059948,2.499993,-0.00264986,0.0003204793,0.0003189313,0.001051991,0.000918231,1088.49,1083.213,0,99.51695,,
	09/02/2022 16:24:47.266,2.46869e+06,1080.2,433,6,-0.001059917,2.499997,-0.00264979,0.000319656,0.0003179849,0.001049272,0.0009154939,1085.679,1080.025,0,99.4772,,
	09/02/2022 17:36:41.456,2.473e+06,1074.342,435,6,-0.001059977,2.499991,-0.00264993,0.0003178594,0.000316264,0.001043411,0.0009103927,1079.577,1074.158,0,99.4981,,
	09/02/2022 18:48:16.151,2.47729e+06,1069.53,437,6,-0.001059965,2.499997,-0.00264991,0.0003165658,0.0003148505,0.001039186,0.0009062824,1075.189,1069.336,0,99.45817,,
	09/02/2022 19:59:29.584,2.48157e+06,1064.64,439,6,-0.001059993,2.499991,-0.00264997,0.0003149238,0.0003134153,0.001033811,0.0009020609,1069.613,1064.464,0,99.52098,,
	09/02/2022 21:10:30.271,2.48583e+06,1061.8,441,6,-0.001059991,2.499991,-0.00264997,0.0003140598,0.000312577,0.00103095,0.0008996647,1066.673,1061.616,0,99.52785,,
	09/02/2022 22:21:16.135,2.49007e+06,1057.4,443,6,-0.001059971,2.499976,-0.0026499,0.0003129266,0.0003112878,0.001027233,0.0008959136,1062.823,1057.219,0,99.4763,,
	09/02/2022 23:31:41.985,2.4943e+06,1052.82,445,6,-0.001060002,2.499982,-0.00264999,0.0003113713,0.0003099338,0.001022147,0.0008919175,1057.579,1052.633,0,99.53833,,
	09/03/2022 00:41:55.251,2.49851e+06,1049.79,447,6,-0.001059971,2.499997,-0.00264992,0.0003106474,0.00030905,0.001019751,0.0008893723,1055.098,1049.616,0,99.48578,,
	09/03/2022 01:51:50.396,2.50271e+06,1045.08,449,6,-0.001059991,2.499999,-0.00264998,0.0003091512,0.0003076562,0.001014857,0.0008852948,1050.007,1044.897,0,99.5164,,
	09/03/2022 03:01:29.475,2.50689e+06,1041.48,451,6,-0.001059984,2.499991,-0.00264995,0.0003079511,0.0003066017,0.001010911,0.0008822097,1045.935,1041.299,0,99.56181,,
	09/03/2022 04:10:53.933,2511052.335,1037.602,453,6,-0.001059947,2.499995,-0.00264986,0.0003069447,0.0003054488,0.001007617,0.0008788745,1042.505,1037.416,0,99.51264,,
	09/03/2022 05:20:05.061,2515203.463,1034.5,455,6,-0.001060012,2.499997,-0.00265003,0.0003059971,0.0003045434,0.001004501,0.0008762515,1039.302,1034.318,0,99.52495,,
	09/03/2022 06:29:02.492,2.51934e+06,1030.88,457,6,-0.001059982,2.49999,-0.00264994,0.0003049992,0.0003034729,0.00100122,0.0008731282,1035.919,1030.702,0,99.4996,,
	09/03/2022 07:37:45.861,2.52346e+06,1027.34,459,6,-0.001059996,2.499997,-0.00264999,0.0003040182,0.0003024386,0.0009979986,0.0008701285,1032.577,1027.165,0,99.48042,,
	09/03/2022 08:46:14.722,2.52757e+06,1023.8,461,6,-0.001059977,2.49999,-0.00264993,0.0003028734,0.0003013923,0.000994251,0.0008670833,1028.687,1023.63,0,99.51099,,
	09/03/2022 09:54:32.912,2.53167e+06,1021.8,463,6,-0.001059949,2.499997,-0.00264987,0.0003021437,0.000300796,0.0009918337,0.0008653984,1026.21,1021.629,0,99.55395,,
	09/03/2022 11:02:38.915,2.53576e+06,1017.88,465,6,-0.001059938,2.499982,-0.00264983,0.0003010921,0.0002996533,0.0009883804,0.0008620599,1022.645,1017.715,0,99.52212,,
	09/03/2022 12:10:27.858,2.53983e+06,1013.49,467,6,-0.001060047,2.499999,-0.00265012,0.0002997925,0.0002983625,0.0009841203,0.0008582774,1018.236,1013.315,0,99.52299,,
	09/03/2022 13:17:57.487,2.54388e+06,1008.83,469,6,-0.001060021,2.499986,-0.00265004,0.0002984059,0.0002969937,0.0009795979,0.0008542357,1013.547,1008.665,0,99.52676,,
	09/03/2022 14:25:09.784,2.54791e+06,1004.3,471,6,-0.001060008,2.499993,-0.00265001,0.0002971368,0.0002956568,0.0009754399,0.0008503338,1009.239,1004.132,0,99.50189,,
	09/03/2022 15:32:04.744,2.55192e+06,1000.27,473,6,-0.001059985,2.49999,-0.00264995,0.000295905,0.0002944723,0.0009714113,0.0008468853,1005.055,1000.098,0,99.51582,,
	09/03/2022 16:38:44.549,2.55592e+06,996.4233,475,6,-0.001060007,2.499991,-0.00265001,0.0002948102,0.0002933462,0.0009678265,0.0008435987,1001.312,996.2621,0,99.5034,,
	09/03/2022 17:45:08.174,2.55991e+06,992.5746,477,6,-0.001060007,2.499991,-0.00265001,0.0002935895,0.0002922157,0.0009638268,0.0008403055,997.1829,992.409,0,99.53206,,
	09/03/2022 18:51:17.922,2.56388e+06,988.9731,479,6,-0.001059957,2.49999,-0.00264988,0.0002925801,0.0002911464,0.0009605142,0.0008371904,993.751,988.8111,0,99.50996,,
	09/03/2022 19:57:13.101,2.56783e+06,985.5736,481,6,-0.001059962,2.499984,-0.00264989,0.0002915421,0.0002901514,0.0009571174,0.0008342908,990.2331,985.404,0,99.52298,,
	09/03/2022 21:02:55.528,2.57177e+06,982.4637,483,6,-0.00105997,2.499984,-0.00264991,0.0002905592,0.0002892259,0.0009538839,0.0008315976,986.8822,982.2975,0,99.54112,,
	09/03/2022 22:08:27.228,2.57571e+06,980.1169,485,6,-0.001059965,2.499999,-0.00264991,0.0002898292,0.000288535,0.00095148,0.0008296079,984.3834,979.9554,0,99.55345,,
	09/03/2022 23:13:49.216,2.57963e+06,977.4811,487,6,-0.001059963,2.499991,-0.0026499,0.0002890759,0.0002877631,0.0009489904,0.000827382,981.7979,977.3159,0,99.54587,,
	09/04/2022 00:19:01.836,2.58354e+06,975.1661,489,6,-0.001059947,2.499995,-0.00264986,0.0002884737,0.0002870732,0.0009470003,0.0008254205,979.7663,975.0012,0,99.51451,,
	09/04/2022 01:24:05.483,2.58744e+06,973.2492,491,6,-0.001059956,2.499976,-0.00264986,0.0002877929,0.0002865081,0.000944743,0.0008238088,977.4521,973.0785,0,99.55355,,
	09/04/2022 02:29:00.323,2.59134e+06,970.9162,493,6,-0.001059963,2.49998,-0.00264989,0.000287141,0.0002858237,0.0009425823,0.0008218389,975.2471,970.756,0,99.54124,,
	09/04/2022 03:33:47.322,2.59523e+06,969.1576,495,6,-0.00105991,2.499997,-0.00264977,0.0002866088,0.0002853007,0.0009408107,0.0008203515,973.4237,968.9995,0,99.54357,,
	09/04/2022 04:38:26.391,2.5991e+06,966.7412,497,6,-0.001059959,2.499988,-0.00264988,0.0002859695,0.0002845909,0.0009386949,0.0008183189,971.2664,966.5777,0,99.51792,,
	09/04/2022 05:42:54.407,2.60297e+06,963.9495,499,6,-0.001059966,2.499963,-0.00264988,0.0002851561,0.0002837702,0.000936024,0.000815935,968.492,963.7831,0,99.51398,,
	09/04/2022 06:47:10.892,2.60683e+06,961.0493,501,6,-0.001059926,2.499999,-0.00264981,0.0002842427,0.0002829165,0.000933012,0.000813454,965.3964,960.8918,0,99.53343,,
	09/04/2022 07:51:15.510,2.61067e+06,957.7438,503,6,-0.001059963,2.499995,-0.0026499,0.0002834057,0.0002819451,0.0009302564,0.0008106252,962.5499,957.5877,0,99.48463,,