File: Cell-test-data/SiMP-LFP-PS3/JB5_SiMPs-LFP-POF3-A7_Channel_38_StatisticByCycle.CSV
Date_Time                    ,Test Time (s),Step Time (s),Cycle Index,Step Index,Current (A),Voltage (V),Power (W),Charge Capacity (Ah),Discharge Capacity (Ah),Charge Energy (Wh),Discharge Energy (Wh),Charge Time (s),Discharge Time (s),V_Max_On_Cycle (V),Coulombic Efficiency (%),mAh/g
	05/16/2022 16:52:48.570,178755,60973.6,1,3,-0.000159006,2.499986,-0.000397513,0.003293337,0.002692661,0.01089249,0.007985577,74571.48,60965.67,0,81.76089,,
	05/18/2022 02:10:46.333,298632.569,57766.346,2,3,-0.000159003,2.499974,-0.000397503,0.002742713,0.002550904,0.008863837,0.007528789,62103.3,57758.55,0,93.00659,,
	05/19/2022 09:47:04.190,412410,55077.2,3,3,-0.0001589959,2.499995,-0.000397489,0.002592098,0.002432121,0.008340835,0.007151189,58692.89,55069.77,0,93.82829,,
	05/19/2022 13:54:11.518,427238,7156.39,4,6,-0.001059895,2.499993,-0.00264973,0.002258116,0.002106676,0.007411608,0.006039162,7669.729,7155.49,0,93.29351,,
	05/19/2022 17:48:58.359,441325,6966.817,5,6,-0.001059919,2.499999,-0.0026498,0.00209602,0.00205091,0.006862991,0.00587278,7119.06,6965.847,0,97.84785,,
	05/19/2022 21:39:59.519,455186,6855.299,6,6,-0.00105996,2.499993,-0.00264989,0.002062434,0.002018167,0.006750342,0.005774658,7004.862,6854.398,0,97.85365,,
	05/20/2022 01:27:58.903,468865.139,6773.93,7,6,-0.001059875,2.499995,-0.00264968,0.002032875,0.001994122,0.006653177,0.005705226,6904.507,6773.062,0,98.09367,,
	05/20/2022 05:13:31.495,482398,6696.8,8,6,-0.001059953,2.499995,-0.00264988,0.002012401,0.001971457,0.006583321,0.005639849,6834.809,6695.932,0,97.96542,,
	05/20/2022 08:56:09.164,495755,6609.98,9,6,-0.001059942,2.499988,-0.00264984,0.001986478,0.001945921,0.006497641,0.005565684,6746.803,6609.133,0,97.95834,,
	05/20/2022 12:35:57.410,508944,6527.26,10,6,-0.001060131,2.499999,-0.00265033,0.001960914,0.001921508,0.006413544,0.005494466,6660.029,6526.454,0,97.99046,,
	05/20/2022 16:13:18.662,521985,6458.926,11,6,-0.001060123,2.499993,-0.0026503,0.001937775,0.001901599,0.006337498,0.00543875,6581.413,6458.119,0,98.13312,,
	05/20/2022 19:48:32.064,534898.3,6390.75,12,6,-0.001060108,2.49999,-0.00265026,0.001920211,0.001881678,0.006277744,0.005382346,6521.741,6389.917,0,97.99331,,
	05/20/2022 23:21:06.786,547653,6313.6,13,6,-0.001059905,2.499988,-0.00264975,0.001896193,0.001858653,0.006198833,0.005315437,6440.274,6312.74,0,98.0202,,
	05/21/2022 02:50:27.151,560213,6215.02,14,6,-0.0010599,2.499997,-0.00264975,0.001867998,0.001829569,0.006107369,0.005229524,6344.455,6214.179,0,97.94278,,
	05/21/2022 06:17:05.418,572612,6138.85,15,6,-0.001059927,2.499995,-0.00264981,0.001842688,0.001807139,0.006025604,0.005165068,6258.574,6138.055,0,98.07078,,
	05/21/2022 09:41:21.612,584868,6068.26,16,6,-0.001059911,2.499997,-0.00264977,0.001821639,0.001786376,0.005956834,0.005106003,6187.087,6067.48,0,98.06422,,
	05/21/2022 13:03:06.831,596973,5995.09,17,6,-0.001060103,2.499993,-0.00265025,0.001798742,0.00176517,0.005881815,0.005044807,6109.321,5994.282,0,98.13358,,
	05/21/2022 16:23:04.481,608971,5942.17,18,6,-0.001059889,2.499997,-0.00264972,0.001782692,0.001749545,0.005828216,0.005002069,6054.68,5941.343,0,98.1406,,
	05/21/2022 19:40:43.201,620829,5870.34,19,6,-0.001060141,2.499999,-0.00265035,0.00176288,0.001728461,0.005762726,0.004940818,5987.537,5869.558,0,98.04755,,
	05/21/2022 22:55:47.763,632534,5796.95,20,6,-0.001059927,2.499999,-0.00264982,0.001739087,0.001706487,0.005686359,0.004876975,5906.78,5796.188,0,98.12547,,
	05/22/2022 02:08:41.000,644107,5733.93,21,6,-0.001059967,2.499982,-0.0026499,0.001718999,0.001688024,0.005620541,0.004824369,5838.483,5733.21,0,98.19807,,
	05/22/2022 05:19:37.100,655563,5674.81,22,6,-0.001059947,2.499997,-0.00264986,0.001701917,0.001670629,0.005564625,0.004774688,5780.498,5674.067,0,98.1616,,
	05/22/2022 08:28:24.923,666891,5610.75,23,6,-0.001059981,2.499999,-0.00264995,0.001682997,0.001651813,0.005502626,0.004720732,5716.259,5610.015,0,98.14709,,
	05/22/2022 11:35:08.376,678095,5549.86,24,6,-0.001059951,2.499997,-0.00264987,0.001664298,0.001633861,0.005441779,0.004669367,5652.864,5549.149,0,98.17119,,
	05/22/2022 14:39:51.674,689178,5492.35,25,6,-0.00105988,2.499995,-0.00264969,0.001645875,0.001616862,0.005381613,0.004620951,5590.18,5491.663,0,98.23724,,
	05/22/2022 17:43:07.954,700174,5448.68,26,6,-0.001059921,2.499995,-0.0026498,0.001633127,0.001603984,0.005338835,0.004585803,5546.813,5447.98,0,98.21548,,
	05/22/2022 20:44:17.937,711044,5384.932,27,6,-0.001059867,2.499999,-0.00264967,0.001614717,0.001585203,0.005278554,0.00453073,5484.302,5384.227,0,98.17222,,
	05/22/2022 23:43:18.875,721785,5321.27,28,6,-0.00105995,2.49998,-0.00264985,0.001595442,0.001566513,0.005216165,0.004476749,5418.875,5320.61,0,98.18675,,
	05/23/2022 02:40:27.734,732414,5268.11,29,6,-0.001059953,2.499991,-0.00264987,0.00157808,0.001550915,0.005159657,0.004432205,5359.973,5267.44,0,98.27864,,
	05/23/2022 05:35:55.988,742942,5216.6,30,6,-0.001059891,2.499997,-0.00264972,0.001563616,0.001535742,0.005112177,0.004389081,5310.896,5215.916,0,98.21729,,
	05/23/2022 08:29:35.058,753361,5162.66,31,6,-0.001059903,2.499991,-0.00264975,0.00154734,0.001519851,0.005058958,0.004343384,5255.655,5162.02,0,98.22349,,
	05/23/2022 11:21:28.097,763674,5112.58,32,6,-0.001059907,2.499993,-0.00264976,0.001530896,0.001505054,0.005005237,0.004300687,5199.681,5111.953,0,98.312,,
	05/23/2022 14:11:42.098,773888,5062.31,33,6,-0.001059942,2.499986,-0.00264984,0.001516536,0.001490316,0.004958082,0.004258483,5150.94,5061.654,0,98.27106,,
	05/23/2022 17:00:19.304,784006,5013.57,34,6,-0.001059955,2.499974,-0.00264986,0.001502411,0.001475977,0.004912097,0.004217829,5102.982,5012.94,0,98.24056,,
	05/23/2022 19:47:10.442,794017,4960.36,35,6,-0.001060008,2.499988,-0.00265001,0.001486846,0.001460276,0.0048612,0.004172495,5050.085,4959.708,0,98.21295,,
	05/23/2022 22:32:19.711,803926,4911.81,36,6,-0.001059925,2.499995,-0.00264981,0.001471138,0.001446021,0.004809769,0.00413213,4996.763,4911.228,0,98.29263,,
	05/24/2022 01:15:57.545,813744,4867.57,37,6,-0.001059865,2.499988,-0.00264965,0.001457271,0.001432915,0.0047646,0.004094256,4949.588,4866.928,0,98.32861,,
	05/24/2022 03:58:05.427,823471.663,4822.44,38,6,-0.001059961,2.499999,-0.0026499,0.001444057,0.001419614,0.004721304,0.004056132,4904.74,4821.792,0,98.30733,,
	05/24/2022 06:38:40.256,833106,4775.47,39,6,-0.001059934,2.499997,-0.00264983,0.0014305,0.001405831,0.004676832,0.00401673,4858.681,4774.908,0,98.27549,,
	05/24/2022 09:17:45.594,842652,4731.95,40,6,-0.001059939,2.499984,-0.00264983,0.001416981,0.00139302,0.004632594,0.00397987,4812.728,4731.345,0,98.309,,
	05/24/2022 11:55:24.446,852111,4689.342,41,6,-0.001059946,2.499988,-0.00264985,0.001404055,0.00138049,0.004590102,0.003944018,4768.851,4688.713,0,98.32166,,
	05/24/2022 14:31:32.450,861479,4643.95,42,6,-0.001059948,2.499993,-0.00264986,0.001390676,0.001367132,0.00454645,0.003905777,4723.401,4643.326,0,98.30707,,
	05/24/2022 17:06:21.120,870767,4606.32,43,6,-0.001059937,2.499999,-0.00264984,0.001378415,0.001356066,0.004506236,0.003874013,4681.677,4605.714,0,98.37863,,
	05/24/2022 19:39:46.745,879973,4563.1,44,6,-0.001059993,2.499999,-0.00264998,0.001366725,0.001343345,0.004468034,0.003837525,4641.893,4562.494,0,98.2893,,
	05/24/2022 22:11:44.911,889091,4520.95,45,6,-0.001059978,2.499999,-0.00264994,0.001353355,0.001330915,0.004424173,0.003801708,4596.553,4520.348,0,98.34193,,
	05/25/2022 00:42:21.766,898128,4480.47,46,6,-0.001059898,2.499995,-0.00264974,0.001341329,0.001319026,0.00438468,0.003767499,4555.732,4479.872,0,98.33725,,
	05/25/2022 03:11:57.987,907104,4451.78,47,6,-0.00105988,2.499988,-0.00264969,0.001331911,0.001310506,0.004353612,0.003744734,4523.776,4451.22,0,98.39297,,
	05/25/2022 05:40:41.544,916028,4422.92,48,6,-0.001060083,2.49999,-0.0026502,0.001324892,0.001302139,0.004329271,0.003722131,4499.992,4422.338,0,98.28265,,
	05/25/2022 08:08:18.984,924885,4391.78,49,6,-0.001059853,2.499993,-0.00264963,0.001314588,0.001292809,0.004294855,0.003695828,4465.006,4391.181,0,98.34328,,
	05/25/2022 10:34:02.275,933629,4330.94,50,6,-0.00105995,2.499988,-0.00264986,0.001298896,0.001274968,0.004243758,0.003641952,4411.72,4330.358,0,98.15782,,
	05/25/2022 12:57:50.652,942256.888,4278.649,51,6,-0.001059933,2.499988,-0.00264982,0.001280467,0.001259583,0.00418546,0.00359698,4349.1,4278.062,0,98.36909,,
	05/25/2022 15:20:28.576,950815,4244.97,52,6,-0.001059941,2.49999,-0.00264984,0.001269641,0.001249659,0.004149762,0.003568537,4312.368,4244.408,0,98.42613,,
	05/25/2022 17:41:55.865,959302,4208.785,53,6,-0.001059942,2.499995,-0.00264985,0.001259503,0.001239026,0.004116419,0.003538163,4277.899,4208.287,0,98.37421,,
	05/25/2022 20:02:10.273,967717,4172.04,54,6,-0.001059941,2.499993,-0.00264985,0.001248857,0.001228183,0.004081422,0.003506929,4241.774,4171.451,0,98.3446,,
	05/25/2022 22:21:09.660,976056,4135.45,55,6,-0.001059953,2.499988,-0.00264987,0.001237549,0.001217489,0.004044623,0.003476221,4203.385,4134.925,0,98.3791,,
	05/26/2022 00:39:01.394,984328,4101.92,56,6,-0.001059955,2.49999,-0.00264988,0.001227506,0.001207622,0.00401156,0.003447838,4169.224,4101.375,0,98.38017,,
	05/26/2022 02:55:40.644,992527,4065.15,57,6,-0.001060013,2.499988,-0.00265002,0.00121699,0.001196815,0.003977144,0.003416895,4133.526,4064.665,0,98.3422,,
	05/26/2022 05:11:14.022,1.00066e+06,4035.25,58,6,-0.001059988,2.499991,-0.00264996,0.001206393,0.001187983,0.003942497,0.003391356,4097.523,4034.718,0,98.47401,,
	05/26/2022 07:25:42.828,1.00873e+06,4001.82,59,6,-0.001059995,2.499999,-0.00264999,0.001197249,0.00117812,0.00391242,0.00336297,4066.443,4001.252,0,98.4022,,
	05/26/2022 09:39:10.995,1.01674e+06,3971.11,60,6,-0.001059984,2.499997,-0.00264996,0.001188409,0.001168999,0.003883654,0.003336966,4036.441,3970.37,0,98.36672,,
	05/26/2022 11:51:27.577,1.02467e+06,3935.08,61,6,-0.001059974,2.499978,-0.00264991,0.001177916,0.001158467,0.003849135,0.003306656,4000.802,3934.485,0,98.34884,,
	05/26/2022 14:02:28.561,1032534.797,3897.68,62,6,-0.001059934,2.499972,-0.00264981,0.001166695,0.001147414,0.003812186,0.003274742,3962.577,3896.998,0,98.34742,,
	05/26/2022 16:12:16.278,1.04032e+06,3864.79,63,6,-0.001059981,2.499982,-0.00264993,0.001154829,0.00113777,0.003773824,0.003246197,3922.229,3864.264,0,98.5228,,
	05/26/2022 18:21:08.234,1.04805e+06,3834.17,64,6,-0.001060011,2.499995,-0.00265002,0.001147391,0.001128727,0.003749237,0.003220478,3897.017,3833.571,0,98.37334,,
	05/26/2022 20:28:54.702,1.05572e+06,3801.568,65,6,-0.001060002,2.49999,-0.00264999,0.001137742,0.001119114,0.003717663,0.003192902,3864.211,3800.906,0,98.3627,,
	05/26/2022 22:35:36.992,1.06332e+06,3771.21,66,6,-0.00105995,2.499995,-0.00264987,0.001127748,0.00111017,0.003685052,0.003167082,3830.375,3770.573,0,98.44135,,
	05/27/2022 00:41:17.462,1070863.698,3740.57,67,6,-0.001060023,2.499978,-0.00265003,0.001118591,0.00110119,0.003654985,0.003141226,3799.219,3739.956,0,98.44434,,
	05/27/2022 02:45:59.558,1.07835e+06,3711.09,68,6,-0.001059964,2.499991,-0.0026499,0.001110107,0.001092529,0.003627227,0.00311633,3770.382,3710.553,0,98.41659,,
	05/27/2022 04:49:42.684,1.08577e+06,3682.838,69,6,-0.001059979,2.499993,-0.00264994,0.00110112,0.001084189,0.003597709,0.003092284,3739.706,3682.249,0,98.46239,,
	05/27/2022 06:52:29.490,1.09314e+06,3654.36,70,6,-0.001059967,2.499984,-0.0026499,0.00109285,0.001075768,0.00357053,0.003068051,3711.718,3653.69,0,98.43696,,
	05/27/2022 08:54:17.436,1.10044e+06,3625.68,71,6,-0.001059978,2.499991,-0.00264994,0.00108396,0.001067373,0.003541417,0.003043876,3681.573,3625.115,0,98.46973,,
	05/27/2022 10:55:08.655,1.10769e+06,3596.7,72,6,-0.001059922,2.499995,-0.0026498,0.001075766,0.001058833,0.003514615,0.00301916,3653.731,3596.122,0,98.42595,,
	05/27/2022 12:55:04.433,1.11489e+06,3571.03,73,6,-0.001059936,2.499995,-0.00264983,0.001067075,0.001051243,0.003486304,0.002997661,3624.161,3570.379,0,98.5163,,
	05/27/2022 14:54:13.354,1.12204e+06,3546.51,74,6,-0.001059951,2.499988,-0.00264986,0.001060501,0.001043991,0.003464411,0.002976825,3601.797,3545.813,0,98.4432,,
	05/27/2022 16:52:25.541,1.12913e+06,3518.98,75,6,-0.001059951,2.49999,-0.00264987,0.001051873,0.00103589,0.003436079,0.002953235,3572.497,3518.362,0,98.48055,,
	05/27/2022 18:49:45.586,1.13617e+06,3492.2,76,6,-0.001059941,2.49999,-0.00264984,0.001044459,0.001027985,0.00341192,0.002930497,3547.283,3491.472,0,98.42271,,
	05/27/2022 20:46:04.367,1.14315e+06,3462.93,77,6,-0.001059958,2.499993,-0.00264989,0.001034926,0.001019408,0.003380831,0.002905594,3515.026,3462.257,0,98.50062,,
	05/27/2022 22:41:32.102,1.15008e+06,3437.4,78,6,-0.001059965,2.499993,-0.00264991,0.001027447,0.001011907,0.003356241,0.002883815,3489.637,3436.775,0,98.4875,,
	05/28/2022 00:36:07.065,1.15695e+06,3411.2,79,6,-0.001059947,2.499997,-0.00264986,0.001019693,0.001004221,0.003330912,0.002861647,3463.173,3410.697,0,98.48274,,
	05/28/2022 02:29:51.611,1.16378e+06,3386.3,80,6,-0.001059928,2.499984,-0.0026498,0.001012155,0.0009968182,0.003306236,0.002840331,3437.605,3385.562,0,98.48476,,
	05/28/2022 04:22:45.258,1.17055e+06,3360.88,81,6,-0.001059941,2.499967,-0.00264982,0.001004593,0.0009893441,0.003281514,0.002818838,3411.988,3360.274,0,98.48205,,
	05/28/2022 06:14:49.271,1.17728e+06,3337.148,82,6,-0.00105999,2.499995,-0.00264997,0.0009970269,0.0009823639,0.003256672,0.002798621,3386.237,3336.542,0,98.52934,,
	05/28/2022 08:06:03.944,1.18395e+06,3311.44,83,6,-0.001059928,2.499991,-0.00264981,0.0009900425,0.0009748152,0.003233796,0.002776889,3362.496,3310.832,0,98.46196,,
	05/28/2022 09:56:40.094,1.19059e+06,3293.56,84,6,-0.001059986,2.499993,-0.00264996,0.0009840109,0.0009695558,0.003213961,0.0027622,3341.959,3293.033,0,98.53101,,
	05/28/2022 11:46:32.187,1.19718e+06,3271.93,85,6,-0.001059932,2.499997,-0.00264983,0.0009773589,0.0009631464,0.003191958,0.0027437,3319.476,3271.312,0,98.54582,,
	05/28/2022 13:35:40.604,1.20373e+06,3249.28,86,6,-0.001059928,2.499999,-0.00264982,0.0009711949,0.0009565029,0.003171691,0.002724661,3298.504,3248.753,0,98.48721,,
	05/28/2022 15:23:56.927,1.21022e+06,3223.56,87,6,-0.001059886,2.499999,-0.00264971,0.0009634499,0.0009488868,0.003146208,0.002702708,3272.167,3222.873,0,98.48844,,
	05/28/2022 17:11:29.215,1.21668e+06,3202.66,88,6,-0.001059946,2.499997,-0.00264986,0.0009566068,0.0009427795,0.003123826,0.002685072,3248.896,3202.063,0,98.55454,,
	05/28/2022 18:58:20.666,1223086.902,3181.22,89,6,-0.001059989,2.49998,-0.00264995,0.0009509207,0.0009364755,0.003105199,0.002666939,3229.603,3180.646,0,98.48093,,
	05/28/2022 20:44:17.921,1.22944e+06,3154.432,90,6,-0.001059922,2.499997,-0.0026498,0.0009428273,0.0009285798,0.00307879,0.00264382,3202.184,3153.84,0,98.48885,,
	05/28/2022 22:29:27.699,1.23575e+06,3131.38,91,6,-0.001060004,2.499991,-0.00265,0.0009356181,0.0009218138,0.003055392,0.002624268,3177.743,3130.821,0,98.52458,,
	05/29/2022 00:13:52.279,1.24202e+06,3109.47,92,6,-0.001059953,2.499988,-0.00264987,0.0009287936,0.0009153668,0.00303312,0.002605569,3154.542,3108.857,0,98.55437,,
	05/29/2022 01:57:33.961,1.24824e+06,3088.16,93,6,-0.001059992,2.499993,-0.00264997,0.0009224161,0.0009091073,0.003012245,0.002587514,3132.855,3087.588,0,98.55718,,
	05/29/2022 03:40:34.181,1.25442e+06,3067.11,94,6,-0.001059997,2.499976,-0.00264997,0.0009164258,0.0009029426,0.002992681,0.002569809,3112.521,3066.636,0,98.52872,,
	05/29/2022 05:22:50.865,1.26056e+06,3045.83,95,6,-0.00105999,2.499991,-0.00264997,0.0009098743,0.0008966172,0.002971182,0.002551566,3090.323,3045.219,0,98.54298,,
	05/29/2022 07:04:26.279,1.26665e+06,3025.29,96,6,-0.001059961,2.499978,-0.00264988,0.0009037466,0.000890585,0.00295109,0.002534187,3069.445,3024.727,0,98.54366,,
	05/29/2022 08:45:21.288,1.27271e+06,3005.66,97,6,-0.001059955,2.499993,-0.00264988,0.0008976723,0.0008847869,0.002931213,0.002517568,3048.737,3005.113,0,98.56458,,
	05/29/2022 10:25:43.001,1.27873e+06,2989.09,98,6,-0.001059903,2.499974,-0.00264973,0.0008927604,0.0008799203,0.002914793,0.002504109,3032.025,2988.572,0,98.56175,,
	05/29/2022 12:05:32.791,1.28472e+06,2972.85,99,6,-0.001059934,2.49999,-0.00264982,0.0008881457,0.0008751407,0.002899549,0.002490323,3016.416,2972.397,0,98.53571,,
	05/29/2022 13:44:41.722,1.29067e+06,2953.33,100,6,-0.001059923,2.499997,-0.0026498,0.0008818411,0.0008693359,0.002878842,0.002473559,2995.073,2952.711,0,98.58192,,
	05/29/2022 15:23:09.666,1.29658e+06,2932.51,101,6,-0.001059852,2.49999,-0.00264962,0.000875914,0.0008632314,0.002859475,0.002455792,2974.857,2931.997,0,98.55207,,
	05/29/2022 17:00:55.180,1.30244e+06,2911.55,102,6,-0.001060154,2.499999,-0.00265038,0.0008696006,0.0008572254,0.002838914,0.002438459,2953.376,2911.012,0,98.5769,,
	05/29/2022 18:38:08.318,1308274.554,2895.81,103,6,-0.001059902,2.499995,-0.00264975,0.0008646816,0.0008523996,0.002822693,0.002424819,2936.732,2895.286,0,98.57959,,
	05/29/2022 20:14:48.500,1.31407e+06,2879.22,104,6,-0.001060071,2.499993,-0.00265017,0.0008598584,0.0008476055,0.002806651,0.002411046,2920.408,2878.737,0,98.57501,,
	05/29/2022 21:50:45.931,1.31983e+06,2857.22,105,6,-0.00105988,2.499999,-0.0026497,0.0008537296,0.0008410572,0.002786673,0.002392103,2899.571,2856.687,0,98.51564,,
	05/29/2022 23:26:07.061,1.32555e+06,2840.36,106,6,-0.001059979,2.49999,-0.00264994,0.000848037,0.000836128,0.002768005,0.002377943,2880.203,2839.835,0,98.5957,,
	05/30/2022 01:00:51.751,1.33124e+06,2821.382,107,6,-0.001059976,2.499995,-0.00264993,0.0008428931,0.0008305326,0.00275129,0.002361889,2862.8,2820.845,0,98.53356,,
	05/30/2022 02:34:56.020,1.33688e+06,2802.03,108,6,-0.001059944,2.499999,-0.00264986,0.0008366565,0.0008248327,0.002730847,0.00234534,2841.661,2801.463,0,98.58678,,
	05/30/2022 04:08:25.279,1.34249e+06,2784.97,109,6,-0.001059925,2.499991,-0.0026498,0.0008313694,0.0008198472,0.002713525,0.002330923,2823.658,2784.426,0,98.61407,,
	05/30/2022 05:41:21.044,1.34807e+06,2768.31,110,6,-0.001060023,2.499986,-0.00265004,0.0008264438,0.0008149472,0.002697344,0.002316889,2806.896,2767.821,0,98.6089,,
	05/30/2022 07:13:41.579,1353607.815,2750.23,111,6,-0.001059974,2.499997,-0.00264993,0.0008213971,0.0008096291,0.002680813,0.002301657,2789.783,2749.77,0,98.56733,,
	05/30/2022 08:45:27.918,1.35911e+06,2733.48,112,6,-0.001059986,2.499988,-0.00264995,0.000816207,0.0008046593,0.002663872,0.002287297,2772.216,2732.86,0,98.58519,,
	05/30/2022 10:16:42.501,1.36459e+06,2718.84,113,6,-0.001059936,2.49999,-0.00264983,0.0008112064,0.000800362,0.002647384,0.002275049,2755.152,2718.347,0,98.66319,,
	05/30/2022 11:47:27.349,1.37003e+06,2702.68,114,6,-0.00105987,2.499982,-0.00264966,0.0008072362,0.000795598,0.002634404,0.002261404,2741.619,2702.164,0,98.55827,,
	05/30/2022 13:17:39.199,1.37545e+06,2686.78,115,6,-0.001059948,2.499961,-0.00264983,0.0008021843,0.0007908939,0.002617858,0.002247767,2724.508,2686.294,0,98.59254,,
	05/30/2022 14:47:10.812,1.38082e+06,2666.39,116,6,-0.001059888,2.499997,-0.00264972,0.0007963487,0.0007848829,0.002598764,0.002230431,2704.706,2665.915,0,98.5602,,
	05/30/2022 16:16:09.141,1.38616e+06,2650.44,117,6,-0.001059897,2.499991,-0.00264973,0.0007912632,0.0007801745,0.002582119,0.002216906,2687.375,2649.906,0,98.59861,,
	05/30/2022 17:44:34.734,1.39146e+06,2634.49,118,6,-0.001059927,2.49999,-0.00264981,0.0007862687,0.000775458,0.002565776,0.002203332,2670.423,2633.871,0,98.62506,,
	05/30/2022 19:12:27.709,1396733.945,2617.867,119,6,-0.001059951,2.49999,-0.00264987,0.0007815811,0.0007706003,0.002550466,0.002189454,2654.524,2617.385,0,98.59506,,
	05/30/2022 20:39:52.828,1401979.064,2604.14,120,6,-0.001059897,2.499991,-0.00264973,0.0007774312,0.0007665657,0.002536785,0.002177841,2640.45,2603.703,0,98.60238,,
	05/30/2022 22:06:45.479,1.40719e+06,2588.21,121,6,-0.0010599,2.499995,-0.00264974,0.0007725746,0.0007618931,0.002521028,0.002164466,2623.926,2587.76,0,98.61741,,
	05/30/2022 23:33:08.261,1.41237e+06,2572.86,122,6,-0.001059932,2.499999,-0.00264983,0.0007683054,0.000757353,0.00250693,0.002151497,2609.433,2572.308,0,98.57447,,
	05/31/2022 00:58:57.920,1.41752e+06,2557.36,123,6,-0.001059905,2.49999,-0.00264975,0.0007630786,0.0007527933,0.00248978,0.002138385,2591.723,2556.847,0,98.65213,,
	05/31/2022 02:24:16.221,1.42264e+06,2540.78,124,6,-0.001059918,2.499988,-0.00264978,0.0007587465,0.000747953,0.002475585,0.002124435,2576.992,2540.315,0,98.57745,,
	05/31/2022 03:49:05.678,1.42773e+06,2527.373,125,6,-0.001059922,2.499988,-0.00264979,0.0007542252,0.00074401,0.002460824,0.002113022,2561.562,2526.927,0,98.64561,,
	05/31/2022 05:13:22.541,1.43279e+06,2510.45,126,6,-0.001059958,2.499995,-0.00264989,0.0007496099,0.0007390176,0.002445747,0.002098706,2545.909,2510.021,0,98.58697,,
	05/31/2022 06:37:08.852,1.43782e+06,2495.82,127,6,-0.001059976,2.499997,-0.00264994,0.0007449238,0.0007347157,0.002430362,0.002086388,2530.027,2495.377,0,98.62965,,
	05/31/2022 08:00:26.044,1.44281e+06,2481.124,128,6,-0.001059956,2.499974,-0.00264986,0.0007406369,0.0007303774,0.002416326,0.002073905,2515.487,2480.581,0,98.61477,,
	05/31/2022 09:23:13.428,1.44778e+06,2466.75,129,6,-0.001060004,2.49999,-0.00265,0.0007361245,0.0007261861,0.002401559,0.002061877,2500.133,2466.329,0,98.64991,,
	05/31/2022 10:45:40.087,1.45273e+06,2456.203,130,6,-0.00105993,2.499999,-0.00264982,0.0007331314,0.0007230352,0.002391729,0.002052977,2489.96,2455.751,0,98.62287,,
	05/31/2022 12:07:31.326,1.45764e+06,2438.21,131,6,-0.001060164,2.499997,-0.00265041,0.0007279827,0.0007177821,0.002374819,0.002037676,2472.494,2437.786,0,98.5988,,
	05/31/2022 13:28:51.583,1.46252e+06,2423.4,132,6,-0.001059872,2.499986,-0.00264967,0.0007232582,0.0007133677,0.002359462,0.002025,2456.354,2422.995,0,98.63251,,
	05/31/2022 14:49:43.317,1.46737e+06,2409.565,133,6,-0.001059891,2.49998,-0.00264971,0.0007189466,0.0007092885,0.002345372,0.002013247,2441.723,2409.119,0,98.65662,,
	05/31/2022 16:10:10.298,1.4722e+06,2396.67,134,6,-0.001060099,2.499982,-0.00265023,0.0007154294,0.0007055944,0.002333893,0.002002748,2429.807,2396.233,0,98.62531,,
	05/31/2022 17:30:10.240,1.477e+06,2383.97,135,6,-0.001059863,2.499988,-0.00264964,0.0007112009,0.0007017569,0.002320037,0.001991732,2415.467,2383.549,0,98.6721,,
	05/31/2022 18:49:45.343,1.48177e+06,2371.7,136,6,-0.001059907,2.49998,-0.00264975,0.0007075206,0.0006981468,0.002307886,0.001981394,2402.941,2371.308,0,98.67513,,
	05/31/2022 20:08:53.353,1.48652e+06,2357.86,137,6,-0.00105987,2.499997,-0.00264967,0.0007036157,0.0006940346,0.002295107,0.001969583,2389.655,2357.372,0,98.63831,,
	05/31/2022 21:27:39.617,1.49125e+06,2347.21,138,6,-0.001060109,2.499976,-0.00265025,0.0007003252,0.000691016,0.002284261,0.001961167,2378.536,2346.754,0,98.67074,,
	05/31/2022 22:46:01.904,1.49595e+06,2334.27,139,6,-0.001059911,2.499995,-0.00264977,0.0006970915,0.0006871238,0.002273528,0.001950016,2367.549,2333.864,0,98.57011,,
	06/01/2022 00:03:49.827,1.50062e+06,2317.58,140,6,-0.001059947,2.499999,-0.00264987,0.0006919039,0.0006822252,0.002256784,0.001935756,2349.891,2317.178,0,98.60115,,
	06/01/2022 01:21:10.050,1.50526e+06,2304.09,141,6,-0.001059947,2.499993,-0.00264986,0.0006876636,0.0006782439,0.00224285,0.001924399,2335.549,2303.625,0,98.63019,,
	06/01/2022 02:38:03.797,1.50987e+06,2291.18,142,6,-0.0010599,2.499988,-0.00264974,0.000683681,0.0006744424,0.002229789,0.001913529,2322.04,2290.738,0,98.6487,,
	06/01/2022 03:54:29.978,1.51446e+06,2276.96,143,6,-0.001059964,2.499995,-0.0026499,0.0006797844,0.0006702724,0.002217006,0.001901554,2308.753,2276.546,0,98.60074,,
	06/01/2022 05:10:30.063,1.51902e+06,2264.7,144,6,-0.001059956,2.49998,-0.00264987,0.0006757161,0.0006666653,0.002203735,0.001891242,2294.923,2264.305,0,98.66056,,
	06/01/2022 06:26:05.660,1.52355e+06,2252.21,145,6,-0.001059888,2.499993,-0.00264971,0.0006721849,0.0006629953,0.002192159,0.001880716,2282.969,2251.812,0,98.63288,,
	06/01/2022 07:41:17.445,1.52806e+06,2240.82,146,6,-0.001059925,2.499997,-0.00264981,0.0006685082,0.0006596362,0.002180075,0.001871065,2270.481,2240.403,0,98.67287,,
	06/01/2022 08:56:08.269,1.53255e+06,2230.37,147,6,-0.001059953,2.499991,-0.00264987,0.0006654371,0.0006565544,0.002170089,0.001862232,2260.003,2229.99,0,98.66513,,
	06/01/2022 10:10:35.762,1.53702e+06,2218.43,148,6,-0.001059897,2.499988,-0.00264973,0.0006620667,0.0006530194,0.002159168,0.001852116,2248.613,2218.017,0,98.63347,,
	06/01/2022 11:24:34.607,1.54146e+06,2204.25,149,6,-0.001060071,2.499967,-0.00265014,0.0006578279,0.0006488655,0.002145171,0.001840097,2234.19,2203.915,0,98.63758,,
	06/01/2022 12:38:11.940,1.54588e+06,2194.16,150,6,-0.001060122,2.499984,-0.00265029,0.0006544676,0.0006458969,0.002134291,0.001831777,2222.724,2193.736,0,98.69044,,
	06/01/2022 13:51:28.894,1.55028e+06,2183.26,151,6,-0.00106007,2.499988,-0.00265016,0.0006516537,0.0006427959,0.002124928,0.001822932,2213.238,2182.869,0,98.64071,,
	06/01/2022 15:04:15.227,1.55464e+06,2167.89,152,6,-0.001060138,2.499988,-0.00265033,0.0006471585,0.0006381951,0.002110354,0.001809548,2197.983,2167.504,0,98.61496,,
	06/01/2022 16:16:36.945,1.55898e+06,2156.29,153,6,-0.001059891,2.499976,-0.0026497,0.000643346,0.0006347195,0.002098009,0.001799585,2184.977,2155.9,0,98.65912,,
	06/01/2022 17:28:37.103,1.5633e+06,2145.35,154,6,-0.001060062,2.499982,-0.00265014,0.0006402183,0.000631616,0.002087714,0.001790826,2174.381,2145.018,0,98.65635,,
	06/01/2022 18:40:15.727,1.5676e+06,2134.77,155,6,-0.001059872,2.499997,-0.00264968,0.0006369765,0.0006283721,0.002077022,0.001781539,2163.383,2134.372,0,98.64918,,
	06/01/2022 19:51:28.672,1.57187e+06,2122.4,156,6,-0.001059893,2.499995,-0.00264973,0.000633052,0.0006247405,0.002064299,0.001770988,2150.081,2121.968,0,98.68707,,
	06/01/2022 21:02:17.165,1.57612e+06,2109.67,157,6,-0.00105988,2.49998,-0.00264968,0.0006296056,0.000621055,0.002053071,0.0017604,2138.377,2109.288,0,98.64191,,
	06/01/2022 22:12:46.860,1.58035e+06,2100.82,158,6,-0.001060118,2.49999,-0.00265028,0.0006266636,0.0006185146,0.002043426,0.001753394,2128.418,2100.436,0,98.69962,,
	06/01/2022 23:22:55.650,1.58456e+06,2090.06,159,6,-0.001059897,2.499999,-0.00264974,0.0006237021,0.0006152527,0.002033573,0.001743944,2118.298,2089.732,0,98.64529,,
	06/02/2022 00:32:40.775,1.58875e+06,2077.97,160,6,-0.001059897,2.49999,-0.00264973,0.0006203117,0.0006116771,0.002022556,0.001733733,2106.759,2077.597,0,98.60802,,
	06/02/2022 01:42:01.215,1.59291e+06,2066.56,161,6,-0.001059895,2.499988,-0.00264972,0.0006163797,0.000608313,0.002009754,0.001724019,2093.48,2066.171,0,98.69128,,
	06/02/2022 02:51:00.816,1.59705e+06,2055.56,162,6,-0.001059909,2.499999,-0.00264977,0.0006134959,0.0006051054,0.002000397,0.001714838,2083.654,2055.217,0,98.63235,,
	06/02/2022 03:59:38.008,1.60116e+06,2044.76,163,6,-0.001059941,2.499997,-0.00264985,0.000610068,0.0006019283,0.001989081,0.001705886,2071.965,2044.385,0,98.66577,,
	06/02/2022 05:07:53.425,1605259.661,2033.72,164,6,-0.001059922,2.49999,-0.00264979,0.0006069061,0.0005986565,0.001978711,0.001696532,2061.29,2033.326,0,98.64071,,
	06/02/2022 06:15:50.790,1.60934e+06,2025.15,165,6,-0.001059937,2.499993,-0.00264984,0.0006040911,0.0005961708,0.001969604,0.001689355,2051.76,2024.804,0,98.6889,,
	06/02/2022 07:23:25.540,1.61339e+06,2013.56,166,6,-0.001060008,2.499988,-0.00265001,0.0006008781,0.0005927593,0.001959043,0.001679575,2040.812,2013.186,0,98.64883,,
	06/02/2022 08:30:40.230,1.61743e+06,2003.98,167,6,-0.001059969,2.499991,-0.00264991,0.000597751,0.000589911,0.001948794,0.001671457,2030.228,2003.541,0,98.68842,,
	06/02/2022 09:37:34.616,1.62144e+06,1993.32,168,6,-0.001059958,2.499993,-0.00264989,0.0005949217,0.0005867932,0.00193957,0.001662574,2020.599,1992.937,0,98.63369,,
	06/02/2022 10:44:06.987,1.62543e+06,1982.63,169,6,-0.001059964,2.499974,-0.00264988,0.0005916057,0.000583671,0.001928704,0.001653599,2009.323,1982.319,0,98.65878,,
	06/02/2022 11:50:18.246,1.6294e+06,1972.16,170,6,-0.001059927,2.499993,-0.00264981,0.0005884828,0.0005805575,0.001918527,0.001644732,1998.713,1971.825,0,98.65327,,
	06/02/2022 12:56:09.180,1.63336e+06,1962.21,171,6,-0.001059925,2.499978,-0.00264979,0.0005854331,0.0005776235,0.001908514,0.001636394,1988.34,1961.863,0,98.66601,,
	06/02/2022 14:01:39.842,1.63729e+06,1951.63,172,6,-0.001059942,2.499993,-0.00264985,0.000582582,0.0005745019,0.001899346,0.001627408,1978.627,1951.283,0,98.61305,,
	06/02/2022 15:06:51.370,1641197.606,1943,173,6,-0.001059911,2.499993,-0.00264977,0.0005794679,0.0005719339,0.00188909,0.00162005,1968.078,1942.606,0,98.69984,,
	06/02/2022 16:11:42.226,1.64509e+06,1932.59,174,6,-0.001060084,2.499988,-0.0026502,0.0005764645,0.0005689076,0.001879345,0.001611425,1957.886,1932.265,0,98.68909,,
	06/02/2022 17:16:18.510,1.64896e+06,1924.89,175,6,-0.001059932,2.499991,-0.00264982,0.0005744598,0.0005666241,0.00187262,0.001605086,1951.031,1924.573,0,98.63598,,
	06/02/2022 18:20:33.580,1.65282e+06,1914.55,176,6,-0.001059886,2.499988,-0.0026497,0.0005712438,0.0005635826,0.001862115,0.001596266,1940.143,1914.23,0,98.65885,,
	06/02/2022 19:24:25.297,1.65665e+06,1902.424,177,6,-0.001059916,2.499978,-0.00264977,0.0005679295,0.0005600031,0.001851379,0.001585945,1928.908,1902.099,0,98.60433,,
	06/02/2022 20:27:54.254,1660460.49,1891.59,178,6,-0.001059979,2.499997,-0.00264994,0.0005644043,0.0005568225,0.001839962,0.001576809,1916.917,1891.214,0,98.65668,,
	06/02/2022 21:31:04.418,1.66425e+06,1882.328,179,6,-0.001059918,2.49999,-0.00264978,0.0005616,0.0005540799,0.00183073,0.001569086,1907.393,1881.958,0,98.66095,,
	06/02/2022 22:34:00.913,1.66803e+06,1875.63,180,6,-0.001059905,2.499984,-0.00264975,0.0005595592,0.0005521291,0.001824066,0.001563549,1900.465,1875.288,0,98.67215,,
	06/02/2022 23:36:39.479,1.67179e+06,1866.151,181,6,-0.001059916,2.499999,-0.00264979,0.0005571001,0.0005493544,0.001816053,0.001555681,1892.067,1865.836,0,98.60964,,
	06/03/2022 00:38:56.280,1.67552e+06,1855.71,182,6,-0.001059933,2.499993,-0.00264983,0.0005537375,0.0005462793,0.001804935,0.001546909,1880.689,1855.401,0,98.65311,,
	06/03/2022 01:40:55.371,1.67924e+06,1846.81,183,6,-0.001059953,2.499988,-0.00264987,0.0005511555,0.0005436684,0.001796584,0.001539438,1871.941,1846.514,0,98.64156,,
	06/03/2022 02:42:37.349,1.68294e+06,1838.5,184,6,-0.001059936,2.499995,-0.00264983,0.0005485649,0.0005412042,0.001788095,0.001532416,1863.125,1838.122,0,98.6582,,
	06/03/2022 03:44:02.378,1.68663e+06,1830.27,185,6,-0.001059934,2.499991,-0.00264983,0.0005459743,0.0005387837,0.001779616,0.001525494,1854.348,1829.933,0,98.68298,,
	06/03/2022 04:45:09.600,1.6903e+06,1821.06,186,6,-0.001059961,2.499993,-0.0026499,0.0005434586,0.0005360908,0.001771351,0.001517823,1845.788,1820.771,0,98.64428,,
	06/03/2022 05:45:59.314,1.69395e+06,1812.35,187,6,-0.001059969,2.499995,-0.00264992,0.0005408872,0.0005335296,0.001762998,0.001510527,1837.014,1812.034,0,98.6397,,
	06/03/2022 06:46:29.619,1.69758e+06,1802.66,188,6,-0.001059923,2.49999,-0.0026498,0.0005380033,0.0005306636,0.001753543,0.001502347,1827.259,1802.363,0,98.63575,,
	06/03/2022 07:46:42.701,1.70119e+06,1794.19,189,6,-0.001059941,2.499988,-0.00264984,0.0005354101,0.0005281582,0.001745113,0.001495222,1818.451,1793.811,0,98.64554,,
	06/03/2022 08:46:37.428,1.70478e+06,1785.17,190,6,-0.001059969,2.499974,-0.00264989,0.0005327071,0.0005255267,0.00173623,0.001487717,1809.215,1784.887,0,98.6521,,
	06/03/2022 09:46:15.603,1.70836e+06,1777.04,191,6,-0.001059948,2.499984,-0.00264985,0.0005302157,0.0005231186,0.001728121,0.001480789,1800.804,1776.727,0,98.66148,,
	06/03/2022 10:45:36.726,1.71192e+06,1767.97,192,6,-0.001059933,2.499999,-0.00264983,0.0005278587,0.0005204495,0.001720436,0.001473238,1792.792,1767.659,0,98.59637,,
	06/03/2022 11:44:39.673,1.71547e+06,1759.5,193,6,-0.001059983,2.499988,-0.00264994,0.0005250073,0.0005179583,0.001711099,0.001466136,1783.09,1759.204,0,98.65736,,
	06/03/2022 12:43:25.025,1.71899e+06,1750.87,194,6,-0.001059983,2.499988,-0.00264994,0.0005223572,0.0005154299,0.001702425,0.001458911,1774.135,1750.601,0,98.67383,,
	06/03/2022 13:41:57.016,1.7225e+06,1743.83,195,6,-0.001059969,2.499986,-0.00264991,0.0005204886,0.0005133378,0.001696459,0.001452887,1767.783,1743.509,0,98.62614,,
	06/03/2022 14:40:09.275,1.726e+06,1734.2,196,6,-0.001059944,2.499999,-0.00264986,0.0005175201,0.0005104863,0.001686695,0.001444828,1757.658,1733.859,0,98.64086,,
	06/03/2022 15:38:03.765,1.72947e+06,1725.27,197,6,-0.001059914,2.499993,-0.00264978,0.0005149099,0.0005078473,0.001678308,0.001437153,1748.826,1724.914,0,98.6284,,
	06/03/2022 16:35:41.582,1.73293e+06,1717.29,198,6,-0.001059965,2.499978,-0.00264989,0.0005123752,0.0005055259,0.001670005,0.001430534,1740.184,1717,0,98.66322,,
	06/03/2022 17:33:03.821,1.73637e+06,1709.34,199,6,-0.001059921,2.49999,-0.00264979,0.0005101283,0.0005031746,0.001662555,0.001423837,1732.574,1709.069,0,98.63687,,
	06/03/2022 18:30:09.956,1.7398e+06,1701.55,200,6,-0.001059916,2.499993,-0.00264978,0.0005076646,0.0005008759,0.001654624,0.00141741,1724.219,1701.214,0,98.66277,,