File: Cell-test-data/SiMP-LFP-PFP3/JB7_SiMP-LFP-PFP3_03C_Channel_91_StatisticByCycle.CSV
Date_Time                    ,Test Time (s),Step Time (s),Cycle Index,Step Index,Current (A),Voltage (V),Power (W),Charge Capacity (Ah),Discharge Capacity (Ah),Charge Energy (Wh),Discharge Energy (Wh),Charge Time (s),Discharge Time (s),V_Max_On_Cycle (V),Coulombic Efficiency (%),mAh/g
	07/21/2022 17:13:32.690,182256.542,62974.8,1,3,-0.0001589956,2.499999,-0.000397489,0.003359664,0.002780787,0.01115204,0.008239089,76068.3,62965.49,0,82.7698,,
	07/23/2022 03:42:27.471,306391.323,60502.9,2,3,-0.000158991,2.499986,-0.000397475,0.002809975,0.002671644,0.009102939,0.00789557,63623.13,60493.99,0,95.07712,,
	07/24/2022 12:55:05.697,425950,58585.6,3,3,-0.0001589915,2.499999,-0.000397479,0.002692561,0.002586955,0.008692738,0.007621489,60963.56,58576.78,0,96.07785,,
	07/24/2022 17:09:44.314,441228,7305.48,4,6,-0.001059864,2.499993,-0.00264965,0.002347236,0.002150535,0.007786748,0.006131731,7971.793,7304.503,0,91.61988,,
	07/24/2022 21:08:31.356,455555,7079.69,5,6,-0.00106017,2.499995,-0.00265042,0.002133557,0.002084348,0.007065822,0.005936029,7246.185,7078.616,0,97.69357,,
	07/25/2022 01:02:13.035,469577,6935.34,6,6,-0.001059853,2.499995,-0.00264963,0.002086283,0.002041845,0.006908966,0.005812664,7085.246,6934.27,0,97.86996,,
	07/25/2022 04:52:13.228,483377,6828.85,7,6,-0.001059824,2.499995,-0.00264955,0.002052416,0.002010487,0.006796492,0.005723247,6970.215,6827.849,0,97.95712,,
	07/25/2022 08:38:30.725,496955,6716.24,8,6,-0.001059819,2.499995,-0.00264954,0.002020051,0.001977265,0.006689265,0.005629343,6860.184,6715.295,0,97.88196,,
	07/25/2022 12:21:20.991,510325,6617.52,9,6,-0.001059909,2.49999,-0.00264976,0.001988088,0.001948238,0.006584303,0.00554683,6751.646,6616.545,0,97.9956,,
	07/25/2022 16:00:25.502,523469,6504.26,10,6,-0.001059886,2.499995,-0.00264971,0.001954915,0.001914647,0.00647514,0.005451501,6639.25,6503.328,0,97.94018,,
	07/25/2022 19:36:27.200,536431,6413.82,11,6,-0.001059866,2.499995,-0.00264966,0.001927615,0.001888073,0.006385013,0.005377529,6546.81,6412.868,0,97.94867,,
	07/25/2022 23:08:44.654,549169,6306.07,12,6,-0.001059831,2.49999,-0.00264957,0.001893411,0.001856528,0.006272954,0.005286476,6430.41,6305.14,0,98.05202,,
	07/26/2022 02:38:01.221,561725,6221.143,13,6,-0.001060124,2.499978,-0.00265029,0.001865235,0.001831609,0.006180356,0.005216498,6334.465,6220.246,0,98.19723,,
	07/26/2022 06:04:25.104,574109,6129.62,14,6,-0.00106012,2.499997,-0.0026503,0.001841348,0.001804748,0.006101609,0.005141354,6253.269,6128.71,0,98.01232,,
	07/26/2022 09:27:56.607,586320,6048.04,15,6,-0.001060175,2.499995,-0.00265043,0.001814617,0.001780629,0.006013762,0.005073982,6162.525,6047.153,0,98.12697,,
	07/26/2022 12:48:33.111,598357,5964.85,16,6,-0.001059863,2.499991,-0.00264965,0.001787565,0.001756023,0.00592476,0.005003092,6070.676,5963.971,0,98.23548,,
	07/26/2022 16:06:27.437,610231,5884.51,17,6,-0.001059856,2.499991,-0.00264963,0.001763375,0.001732203,0.005845983,0.004936555,5988.885,5883.666,0,98.23222,,
	07/26/2022 19:22:09.163,621973,5817.21,18,6,-0.001060129,2.499995,-0.00265032,0.001744111,0.001712417,0.005781644,0.004882052,5923.612,5816.337,0,98.18282,,
	07/26/2022 22:34:38.684,633523,5722.87,19,6,-0.001060184,2.499993,-0.00265045,0.001715382,0.001684731,0.0056878,0.00480155,5825.737,5722.063,0,98.21318,,
	07/27/2022 01:44:41.542,644925,5655.02,20,6,-0.001059812,2.499995,-0.00264952,0.001692222,0.001664789,0.005611712,0.004745753,5746.948,5654.228,0,98.37886,,
	07/27/2022 04:52:40.079,656204,5590.76,21,6,-0.001060182,2.499991,-0.00265045,0.001674576,0.001645993,0.005553577,0.00469347,5686.866,5589.903,0,98.29311,,
	07/27/2022 07:58:16.350,667340,5522.52,22,6,-0.001060168,2.499993,-0.00265041,0.0016528,0.00162583,0.005481435,0.004636573,5612.926,5521.71,0,98.36819,,
	07/27/2022 11:01:43.002,678347,5458.398,23,6,-0.001059845,2.499993,-0.00264961,0.001633492,0.001606881,0.005417941,0.004583172,5547.394,5457.571,0,98.37093,,
	07/27/2022 14:02:55.236,689219,5391.91,24,6,-0.001059866,2.499995,-0.00264966,0.001613414,0.001587207,0.005351798,0.004527134,5479.41,5391.118,0,98.3757,,
	07/27/2022 17:02:04.146,699968,5330.77,25,6,-0.00105987,2.499993,-0.00264967,0.001595034,0.001569198,0.00529156,0.004477113,5417.296,5329.974,0,98.38027,,
	07/27/2022 19:59:28.097,710612,5277.54,26,6,-0.001060154,2.499995,-0.00265038,0.001579757,0.001553605,0.005240377,0.004434246,5365.537,5276.762,0,98.34454,,
	07/27/2022 22:54:05.826,721090,5198.75,27,6,-0.001059859,2.499997,-0.00264964,0.001554133,0.001530544,0.005156836,0.00436646,5278.174,5197.982,0,98.48217,,
	07/28/2022 01:46:55.885,731460,5140.508,28,6,-0.001059828,2.499995,-0.00264956,0.00153964,0.001513485,0.00510886,0.00431912,5228.733,5139.802,0,98.3012,,
	07/28/2022 04:37:45.995,741710,5086.37,29,6,-0.001059858,2.499993,-0.00264964,0.001520268,0.001497336,0.005045243,0.004273509,5162.998,5085.673,0,98.49158,,
	07/28/2022 07:26:40.638,751844,5027.64,30,6,-0.00105987,2.499984,-0.00264966,0.001503557,0.001480032,0.004990129,0.004224318,5106.272,5026.99,0,98.4354,,
	07/28/2022 10:13:42.613,761866,4971.93,31,6,-0.001059848,2.49998,-0.0026496,0.001486793,0.001463637,0.004935233,0.004177801,5049.317,4971.293,0,98.44254,,
	07/28/2022 12:58:39.894,771764,4905.669,32,6,-0.00105988,2.499995,-0.00264969,0.001469582,0.001444084,0.004878426,0.004122503,4990.898,4904.996,0,98.26495,,
	07/28/2022 15:41:19.214,781523.066,4845.76,33,6,-0.001059903,2.499993,-0.00264975,0.00144653,0.001426482,0.004802809,0.004071501,4912.886,4845.129,0,98.61408,,
	07/28/2022 18:22:38.881,791203,4803.22,34,6,-0.00105991,2.499997,-0.00264977,0.001435571,0.001413942,0.00476642,0.0040373,4875.723,4802.56,0,98.49339,,
	07/28/2022 21:02:05.276,800769,4744.69,35,6,-0.001059868,2.499978,-0.00264965,0.001419487,0.001396696,0.004713052,0.003987888,4821.035,4744.066,0,98.39443,,
	07/28/2022 23:39:27.772,810211.624,4687.27,36,6,-0.001059845,2.499986,-0.0026496,0.001399937,0.001379801,0.004649057,0.003939291,4754.539,4686.671,0,98.56169,,
	07/29/2022 02:15:09.124,819553,4633.21,37,6,-0.001059877,2.499995,-0.00264969,0.001386077,0.001363915,0.00460331,0.003894567,4707.481,4632.597,0,98.40107,,
	07/29/2022 04:49:23.928,828808,4597.98,38,6,-0.001059856,2.499995,-0.00264963,0.001370971,0.001353604,0.00455351,0.003865404,4656.143,4597.409,0,98.73325,,
	07/29/2022 07:22:07.841,837972,4547.39,39,6,-0.001059906,2.499978,-0.00264974,0.00135911,0.001338621,0.004514243,0.003823056,4615.875,4546.747,0,98.49245,,
	07/29/2022 09:53:12.802,847037,4500.26,40,6,-0.001059838,2.499988,-0.00264958,0.001343863,0.00132475,0.004463655,0.003783868,4564.044,4499.663,0,98.57779,,
	07/29/2022 12:22:47.833,856012,4455.722,41,6,-0.001059847,2.499995,-0.00264961,0.0013305,0.001311622,0.004419785,0.003746371,4518.635,4455.116,0,98.58118,,
	07/29/2022 14:50:51.782,864896,4412.51,42,6,-0.001059886,2.499969,-0.00264968,0.001316333,0.001298972,0.004373336,0.003710566,4470.779,4411.921,0,98.68108,,
	07/29/2022 17:18:20.827,873745,4392.2,43,6,-0.001059954,2.49998,-0.00264986,0.001311979,0.001293028,0.004358065,0.003696544,4456.206,4391.646,0,98.55549,,
	07/29/2022 19:44:25.429,882509,4346.82,44,6,-0.001059887,2.499988,-0.0026497,0.00130047,0.00127962,0.00431925,0.003658231,4417.148,4346.261,0,98.39673,,
	07/29/2022 22:08:31.773,891156,4294.43,45,6,-0.00105991,2.499972,-0.00264975,0.001281137,0.001264142,0.004256001,0.003613107,4351.291,4293.821,0,98.67344,,
	07/30/2022 00:30:49.999,899694,4237.62,46,6,-0.001059901,2.499988,-0.00264974,0.001266035,0.001247463,0.004206698,0.003564167,4299.952,4237.055,0,98.53307,,
	07/30/2022 02:51:25.544,908129,4187.96,47,6,-0.00105993,2.499993,-0.00264982,0.001250444,0.001232844,0.004155615,0.003522173,4246.991,4187.423,0,98.59252,,
	07/30/2022 05:10:39.011,916483,4148.29,48,6,-0.001059864,2.499995,-0.00264965,0.001237966,0.001221176,0.004114732,0.003488967,4204.544,4147.778,0,98.64378,,
	07/30/2022 07:28:35.191,924759,4111.3,49,6,-0.001059914,2.499999,-0.00264978,0.001226125,0.00121027,0.004075235,0.0034584,4164.288,4110.76,0,98.70692,,
	07/30/2022 09:45:23.135,932967,4076.58,50,6,-0.001059873,2.499995,-0.00264968,0.001216276,0.001200046,0.004042595,0.003429441,4130.771,4076.074,0,98.66556,,
	07/30/2022 12:00:57.557,941101,4040.7,51,6,-0.001059925,2.499984,-0.0026498,0.001205191,0.001189473,0.004005894,0.00339944,4093.139,4040.146,0,98.69581,,
	07/30/2022 14:15:08.622,949152,3996.86,52,6,-0.001059919,2.499995,-0.00264979,0.001193506,0.001176597,0.003967265,0.003362617,4053.611,3996.332,0,98.58321,,
	07/30/2022 16:28:28.817,957153,3974.93,53,6,-0.001059972,2.499991,-0.00264992,0.001184903,0.001170151,0.003938925,0.003345799,4024.666,3974.38,0,98.755,,
	07/30/2022 18:40:55.712,965100,3944.54,54,6,-0.001059903,2.499999,-0.00264976,0.001178165,0.001161196,0.003915866,0.00332107,4001.779,3944.006,0,98.55972,,
	07/30/2022 20:51:40.526,972944,3893.37,55,6,-0.001059961,2.499999,-0.0026499,0.001163228,0.00114613,0.003866665,0.003276747,3950.89,3892.873,0,98.53018,,
	07/30/2022 23:00:46.545,980690,3850,56,6,-0.0010599,2.499995,-0.00264974,0.001146917,0.001133379,0.003813541,0.003239195,3895.424,3849.5,0,98.81967,,
	07/31/2022 01:08:54.731,988379,3820.01,57,6,-0.001059958,2.499997,-0.00264989,0.001138744,0.001124532,0.003786818,0.003214414,3867.616,3819.525,0,98.75198,,
	07/31/2022 03:15:51.789,995996,3783.66,58,6,-0.001060193,2.499993,-0.00265048,0.001128512,0.001113839,0.003752729,0.003183983,3832.833,3783.167,0,98.69978,,
	07/31/2022 05:21:42.081,1.00355e+06,3751.63,59,6,-0.001060067,2.499997,-0.00265016,0.001118289,0.001104383,0.003718678,0.003157004,3798.062,3751.119,0,98.75648,,
	07/31/2022 07:26:30.439,1.01103e+06,3719.93,60,6,-0.001059892,2.499995,-0.00264972,0.001109386,0.001095044,0.003689245,0.003130622,3767.88,3719.424,0,98.70718,,
	07/31/2022 09:30:26.353,1018470.205,3694.695,61,6,-0.001059886,2.499995,-0.00264971,0.001101401,0.001087633,0.003662945,0.0031098,3740.665,3694.268,0,98.74996,,
	07/31/2022 11:33:18.415,1.02584e+06,3662.05,62,6,-0.001059903,2.49998,-0.00264974,0.001092203,0.001078019,0.00363238,0.0030824,3709.431,3661.558,0,98.70137,,
	07/31/2022 13:34:56.120,1.03314e+06,3626.8,63,6,-0.001059939,2.49998,-0.00264983,0.001080674,0.001067667,0.003594263,0.003052454,3670.388,3626.306,0,98.79639,,
	07/31/2022 15:35:30.675,1.04037e+06,3596.876,64,6,-0.001059942,2.49999,-0.00264984,0.00107088,0.001058881,0.003561977,0.003027019,3637.159,3596.436,0,98.87951,,
	07/31/2022 17:35:08.934,1.04755e+06,3567.39,65,6,-0.001059948,2.499991,-0.00264986,0.001062981,0.001050186,0.003535951,0.003002031,3610.326,3566.907,0,98.79627,,
	07/31/2022 19:34:03.560,1.05469e+06,3547.16,66,6,-0.001059912,2.499999,-0.00264978,0.001056081,0.001044234,0.003512969,0.002985731,3586.961,3546.695,0,98.87827,,
	07/31/2022 21:32:20.284,1.06178e+06,3527.74,67,6,-0.001059962,2.499991,-0.0026499,0.001050606,0.001038518,0.003494489,0.002970081,3568.479,3527.285,0,98.84937,,
	07/31/2022 23:29:42.514,1.06883e+06,3499.5,68,6,-0.001059944,2.499995,-0.00264985,0.001042889,0.001030193,0.003468757,0.002946071,3542.208,3499.044,0,98.78268,,
	08/01/2022 01:25:53.381,1.0758e+06,3463.85,69,6,-0.001059905,2.499986,-0.00264975,0.0010324,0.001019693,0.003434277,0.002915432,3506.499,3463.432,0,98.76913,,
	08/01/2022 03:21:03.294,1.08271e+06,3435.761,70,6,-0.001059914,2.499999,-0.00264978,0.001022726,0.001011418,0.003402571,0.002891717,3473.641,3435.33,0,98.89425,,
	08/01/2022 05:15:21.137,1.08956e+06,3406.8,71,6,-0.001059919,2.499995,-0.00264979,0.001015931,0.001002908,0.003379978,0.002867566,3450.512,3406.383,0,98.71809,,
	08/01/2022 07:08:46.462,1.09637e+06,3384.85,72,6,-0.001059933,2.499999,-0.00264983,0.001006957,0.0009964356,0.003350033,0.002849085,3419.969,3384.389,0,98.95509,,
	08/01/2022 09:01:28.956,1.10313e+06,3362.12,73,6,-0.001059925,2.499993,-0.00264981,0.001001043,0.0009897454,0.003330483,0.002830481,3399.889,3361.681,0,98.87146,,
	08/01/2022 10:53:14.808,1.10984e+06,3331.28,74,6,-0.001059944,2.499988,-0.00264985,0.0009934217,0.0009806851,0.003305231,0.00280404,3374.068,3330.83,0,98.71791,,
	08/01/2022 12:44:07.699,1.11649e+06,3309.69,75,6,-0.001059894,2.499995,-0.00264973,0.0009841532,0.0009743394,0.003274674,0.002786081,3342.693,3309.271,0,99.00282,,
	08/01/2022 14:34:24.834,1.12311e+06,3289.19,76,6,-0.001059928,2.499988,-0.00264981,0.0009796632,0.0009683052,0.003259576,0.002769395,3327.438,3288.787,0,98.84062,,
	08/01/2022 16:24:26.559,1.12971e+06,3284.95,77,6,-0.001059956,2.499993,-0.00264988,0.000976353,0.0009670567,0.003248147,0.002766912,3316.314,3284.536,0,99.04786,,
	08/01/2022 18:14:06.082,1.13629e+06,3272.71,78,6,-0.001059925,2.499997,-0.00264981,0.0009734136,0.0009634488,0.003237929,0.002757234,3306.307,3272.282,0,98.9763,,
	08/01/2022 20:03:12.791,1.14284e+06,3256.37,79,6,-0.00105993,2.499991,-0.00264982,0.0009685733,0.0009586579,0.003221762,0.002743759,3289.87,3255.968,0,98.97628,,
	08/01/2022 21:51:49.904,1.14935e+06,3239.11,80,6,-0.001059989,2.499982,-0.00264995,0.0009649522,0.0009535764,0.003209367,0.002730053,3277.523,3238.67,0,98.8211,,
	08/01/2022 23:39:59.922,1.15584e+06,3229.6,81,6,-0.001059961,2.499988,-0.00264989,0.0009597606,0.0009507709,0.003191872,0.002722433,3259.945,3229.191,0,99.06333,,
	08/02/2022 01:27:34.900,1.1623e+06,3208.81,82,6,-0.001059974,2.499982,-0.00264992,0.0009555601,0.0009446585,0.003177772,0.002705049,3245.69,3208.413,0,98.85914,,
	08/02/2022 03:14:29.867,1.16871e+06,3189.43,83,6,-0.001059895,2.499991,-0.00264973,0.0009495449,0.0009389409,0.003157707,0.002689127,3225.068,3189.035,0,98.88326,,
	08/02/2022 05:00:46.922,1.17509e+06,3171.9,84,6,-0.001059942,2.499993,-0.00264985,0.0009435014,0.0009337733,0.003137421,0.002674323,3204.653,3171.472,0,98.96895,,
	08/02/2022 06:46:27.633,1.18143e+06,3152.07,85,6,-0.001059949,2.499984,-0.00264986,0.0009387005,0.000927951,0.00312152,0.002657797,3188.186,3151.649,0,98.85486,,
	08/02/2022 08:31:31.394,1.18774e+06,3137.69,86,6,-0.001059901,2.499999,-0.00264975,0.0009320746,0.0009236731,0.003099375,0.002645261,3165.602,3137.263,0,99.09863,,
	08/02/2022 10:15:04.370,1.19395e+06,3085.93,87,6,-0.001059969,2.499988,-0.00264991,0.0009205472,0.000908411,0.003061694,0.002599231,3126.605,3085.508,0,98.68163,,
	08/02/2022 11:57:05.003,1.20007e+06,3044.375,88,6,-0.001059886,2.499999,-0.00264971,0.0009056173,0.0008961839,0.003013499,0.002562292,3075.826,3043.982,0,98.95834,,
	08/02/2022 13:38:07.689,1.20613e+06,3017.09,89,6,-0.001059896,2.499984,-0.00264972,0.0008966253,0.0008881516,0.002984294,0.002538619,3045.169,3016.712,0,99.05494,,
	08/02/2022 15:18:35.508,1.21216e+06,2999.73,90,6,-0.001059892,2.49999,-0.00264972,0.0008914613,0.0008830645,0.002967209,0.002524406,3027.606,2999.373,0,99.05808,,
	08/02/2022 16:58:31.974,1.21816e+06,2983.7,91,6,-0.001059873,2.49998,-0.00264966,0.0008869611,0.0008783239,0.002952185,0.002510938,3012.277,2983.327,0,99.0262,,
	08/02/2022 18:37:59.738,1.22412e+06,2968.87,92,6,-0.001059887,2.499986,-0.0026497,0.0008828584,0.0008739582,0.002938404,0.002498778,2998.409,2968.483,0,98.99189,,
	08/02/2022 20:16:45.570,1.23005e+06,2947.22,93,6,-0.001059891,2.49998,-0.00264971,0.0008768667,0.0008676039,0.002918647,0.002480448,2978.118,2946.825,0,98.94366,,
	08/02/2022 21:55:00.292,1.23594e+06,2933.78,94,6,-0.001059873,2.499991,-0.00264967,0.0008716407,0.000863651,0.002901308,0.002469542,2960.46,2933.393,0,99.08337,,
	08/02/2022 23:32:52.283,1.24182e+06,2922.1,95,6,-0.001059925,2.499997,-0.00264981,0.0008683859,0.0008602067,0.002890181,0.002459866,2949.455,2921.713,0,99.0581,,
	08/03/2022 01:10:06.707,1.24765e+06,2902.22,96,6,-0.001059951,2.499978,-0.00264985,0.0008631953,0.0008543406,0.002872951,0.002442883,2931.774,2901.806,0,98.97421,,
	08/03/2022 02:46:33.779,1.25344e+06,2879.69,97,6,-0.001059903,2.499991,-0.00264975,0.000855898,0.0008477043,0.002849096,0.002423313,2906.97,2879.285,0,99.04269,,
	08/03/2022 04:22:30.722,1.25919e+06,2866.74,98,6,-0.001059928,2.499976,-0.00264979,0.0008508553,0.0008438964,0.002832293,0.002412332,2889.795,2866.34,0,99.18214,,
	08/03/2022 05:57:56.297,1.26492e+06,2848.78,99,6,-0.001059925,2.499986,-0.0026498,0.0008469126,0.0008385954,0.002819306,0.002397222,2876.403,2848.373,0,99.01795,,
	08/03/2022 07:32:50.491,1.27061e+06,2833.06,100,6,-0.001059859,2.499955,-0.0026496,0.0008422931,0.0008339672,0.002803904,0.002384,2860.684,2832.676,0,99.01152,,
	08/03/2022 09:07:16.142,1.27628e+06,2820.88,101,6,-0.001059878,2.499988,-0.00264968,0.0008375028,0.000830402,0.002787951,0.002373931,2844.331,2820.503,0,99.15215,,
	08/03/2022 10:41:11.531,1.28192e+06,2803.26,102,6,-0.001059933,2.499995,-0.00264983,0.0008337548,0.0008252228,0.002775431,0.002359034,2831.699,2802.867,0,98.97668,,
	08/03/2022 12:14:37.462,1.28752e+06,2791.777,103,6,-0.001059958,2.499995,-0.00264989,0.0008284188,0.0008218671,0.002758027,0.002349538,2813.731,2791.415,0,99.20914,,
	08/03/2022 13:47:56.062,1.29312e+06,2785.817,104,6,-0.001059948,2.499997,-0.00264987,0.0008279919,0.0008201171,0.002756142,0.002345344,2812.34,2785.46,0,99.04893,,
	08/03/2022 15:20:53.757,1.2987e+06,2776.45,105,6,-0.001059925,2.499995,-0.00264981,0.0008246145,0.0008173469,0.002744702,0.002337645,2800.838,2776.123,0,99.11868,,
	08/03/2022 16:53:13.748,1.30424e+06,2756.67,106,6,-0.001059881,2.499995,-0.0026497,0.0008193756,0.0008114951,0.002727333,0.002320344,2782.919,2756.319,0,99.03824,,
	08/03/2022 18:24:47.392,1.30973e+06,2734.78,107,6,-0.001059867,2.499995,-0.00264966,0.0008121646,0.0008050544,0.002703702,0.002301111,2758.438,2734.429,0,99.12453,,
	08/03/2022 19:55:53.263,1.3152e+06,2719.5,108,6,-0.001059867,2.499988,-0.00264965,0.0008085242,0.0008005452,0.002691927,0.002288241,2745.969,2719.132,0,99.01315,,
	08/03/2022 21:26:23.414,1.32063e+06,2704.011,109,6,-0.00105991,2.499988,-0.00264976,0.0008025463,0.000796008,0.002672123,0.002274909,2725.729,2703.677,0,99.1853,,
	08/03/2022 22:56:40.179,1.32604e+06,2698.12,110,6,-0.001059926,2.499978,-0.00264979,0.000800331,0.0007942977,0.00266466,0.002270601,2718.257,2697.776,0,99.24615,,
	08/04/2022 00:26:57.646,1.33146e+06,2697.65,111,6,-0.001059878,2.499999,-0.00264969,0.0008006318,0.0007941616,0.002665254,0.002271083,2719.396,2697.29,0,99.19186,,
	08/04/2022 01:57:10.231,1.33687e+06,2694.42,112,6,-0.0010599,2.499991,-0.00264974,0.0008001369,0.0007931973,0.00266332,0.002268699,2717.741,2694.072,0,99.13269,,
	08/04/2022 03:26:43.377,1.34225e+06,2673.14,113,6,-0.001059935,2.499991,-0.00264983,0.0007948249,0.0007869278,0.002645531,0.002250147,2699.597,2672.8,0,99.00644,,
	08/04/2022 04:55:24.412,1.34757e+06,2646.24,114,6,-0.001059935,2.49999,-0.00264983,0.0007874088,0.0007790262,0.00262146,0.002226846,2674.362,2645.906,0,98.93542,,
	08/04/2022 06:23:23.837,1.35285e+06,2628.21,115,6,-0.001059881,2.499999,-0.0026497,0.0007804596,0.0007736958,0.002598585,0.002211121,2650.807,2627.867,0,99.13337,,
	08/04/2022 07:50:50.367,1.35809e+06,2610.82,116,6,-0.001059905,2.499997,-0.00264976,0.0007759032,0.0007685813,0.002583579,0.002196427,2635.28,2610.484,0,99.05634,,
	08/04/2022 09:17:47.205,1363311.057,2597.91,117,6,-0.001059947,2.499999,-0.00264987,0.0007709698,0.0007647897,0.002567314,0.002185275,2618.515,2597.569,0,99.1984,,
	08/04/2022 10:44:24.200,1368508.052,2587.826,118,6,-0.001059921,2.499999,-0.0026498,0.0007680769,0.0007618177,0.002557684,0.002176957,2608.738,2587.478,0,99.18508,,
	08/04/2022 12:10:55.850,1.3737e+06,2585.39,119,6,-0.001059898,2.499997,-0.00264974,0.0007672178,0.0007611117,0.002554647,0.002175567,2605.831,2585.036,0,99.20412,,
	08/04/2022 13:37:18.970,1.37888e+06,2582.43,120,6,-0.001059884,2.499984,-0.00264969,0.0007655808,0.0007602274,0.002548948,0.00217324,2600.299,2582.101,0,99.30074,,
	08/04/2022 15:03:18.481,1.38404e+06,2568.3,121,6,-0.001059907,2.499995,-0.00264976,0.0007627966,0.0007560631,0.00253969,0.002161104,2590.8,2567.955,0,99.11727,,
	08/04/2022 16:28:48.900,1.38917e+06,2553.99,122,6,-0.001059906,2.499986,-0.00264975,0.0007584504,0.0007518551,0.002525353,0.002148993,2576.023,2553.654,0,99.13042,,
	08/04/2022 17:54:05.021,1.39429e+06,2548.35,123,6,-0.001059921,2.499995,-0.0026498,0.000755904,0.0007502096,0.00251682,0.002144495,2567.351,2548.024,0,99.24668,,
	08/04/2022 19:19:02.793,1.39939e+06,2537.47,124,6,-0.001059944,2.49998,-0.00264984,0.0007536874,0.0007470086,0.002509332,0.002135402,2559.877,2537.151,0,99.11385,,
	08/04/2022 20:43:39.396,1.40446e+06,2528.92,125,6,-0.001059923,2.499999,-0.00264981,0.00074997,0.0007444952,0.002496983,0.00212815,2547.296,2528.601,0,99.27,,
	08/04/2022 22:07:51.227,1.40952e+06,2513.31,126,6,-0.001059886,2.499995,-0.00264971,0.0007472791,0.0007398758,0.002488016,0.002114818,2538.121,2512.974,0,99.0093,,
	08/04/2022 23:31:30.727,1414534.579,2499.88,127,6,-0.001059881,2.499986,-0.00264969,0.0007417183,0.0007359223,0.002469631,0.002103072,2519.212,2499.542,0,99.21857,,
	08/05/2022 00:54:41.440,1.41953e+06,2484.53,128,6,-0.001059914,2.499993,-0.00264978,0.0007377757,0.0007314012,0.002456699,0.002089888,2505.771,2484.205,0,99.13599,,
	08/05/2022 02:17:20.743,1.42448e+06,2468.695,129,6,-0.001059914,2.499999,-0.00264978,0.0007331909,0.0007267335,0.002441621,0.00207622,2490.237,2468.387,0,99.11928,,
	08/05/2022 03:39:31.503,1.42942e+06,2455.74,130,6,-0.001059901,2.49997,-0.00264972,0.0007285991,0.0007229244,0.002426445,0.002065161,2474.628,2455.429,0,99.22115,,
	08/05/2022 05:01:19.145,1.43432e+06,2444.29,131,6,-0.001059921,2.499969,-0.00264977,0.0007251718,0.0007195555,0.002415208,0.00205544,2462.971,2443.95,0,99.22552,,
	08/05/2022 06:22:51.086,1.43921e+06,2436.99,132,6,-0.00105991,2.499986,-0.00264976,0.0007227121,0.0007173708,0.00240702,0.002049104,2454.583,2436.625,0,99.26094,,
	08/05/2022 07:44:11.031,1.44409e+06,2432.25,133,6,-0.001059882,2.49999,-0.00264969,0.0007205863,0.0007159882,0.002399772,0.002045217,2447.351,2431.906,0,99.3619,,
	08/05/2022 09:05:21.562,1.44897e+06,2425.39,134,6,-0.001059861,2.499995,-0.00264965,0.0007198289,0.0007139761,0.002397389,0.002039602,2444.764,2425.079,0,99.18691,,
	08/05/2022 10:26:02.189,1.45381e+06,2409.72,135,6,-0.001059907,2.499984,-0.00264975,0.0007156232,0.0007093637,0.002383198,0.002026331,2430.521,2409.403,0,99.12531,,
	08/05/2022 11:46:19.364,1.45862e+06,2398.98,136,6,-0.001059928,2.499997,-0.00264982,0.0007118763,0.0007062119,0.002370874,0.002017145,2417.817,2398.649,0,99.20431,,
	08/05/2022 13:06:34.386,1.46344e+06,2398.81,137,6,-0.001059891,2.499997,-0.00264972,0.0007112573,0.0007061705,0.002368669,0.002017724,2415.829,2398.495,0,99.28481,,
	08/05/2022 14:26:52.047,1.46826e+06,2401.1,138,6,-0.001059877,2.499993,-0.00264969,0.000711368,0.0007068546,0.002368736,0.00202021,2416.207,2400.813,0,99.36552,,
	08/05/2022 15:47:09.159,1.47307e+06,2399.87,139,6,-0.001059917,2.499982,-0.00264977,0.0007115661,0.0007064902,0.002369198,0.002019539,2416.87,2399.564,0,99.28665,,
	08/05/2022 17:07:16.957,1.47788e+06,2393.58,140,6,-0.001059914,2.499991,-0.00264978,0.0007106685,0.000704633,0.002366032,0.002014527,2413.828,2393.26,0,99.15073,,
	08/05/2022 18:27:11.994,1.48268e+06,2388.92,141,6,-0.00105994,2.499978,-0.00264983,0.0007082853,0.0007032635,0.002358003,0.002010666,2405.745,2388.609,0,99.29099,,
	08/05/2022 19:46:49.755,1487453.607,2378.45,142,6,-0.001059898,2.499991,-0.00264974,0.0007062749,0.0007001768,0.00235127,0.002001788,2398.903,2378.146,0,99.13658,,
	08/05/2022 21:06:06.027,1.49221e+06,2368.93,143,6,-0.001059903,2.499995,-0.00264975,0.0007027547,0.000697378,0.002339604,0.001993666,2386.948,2368.638,0,99.23492,,
	08/05/2022 22:25:01.183,1496945.035,2358.13,144,6,-0.001059919,2.499999,-0.0026498,0.0006997255,0.0006941946,0.002329572,0.001984247,2376.626,2357.806,0,99.20957,,
	08/05/2022 23:43:32.831,1.50166e+06,2347.05,145,6,-0.00105987,2.499993,-0.00264967,0.0006960882,0.0006909223,0.002317484,0.001974658,2364.246,2346.732,0,99.25787,,
	08/06/2022 01:01:39.661,1.50634e+06,2333.81,146,6,-0.001059889,2.499999,-0.00264972,0.0006927009,0.0006870225,0.002306398,0.001963157,2352.685,2333.494,0,99.18025,,
	08/06/2022 02:19:19.570,1.511e+06,2320.67,147,6,-0.001059907,2.499993,-0.00264976,0.0006886271,0.0006831392,0.002293008,0.001951698,2338.883,2320.334,0,99.20306,,
	08/06/2022 03:36:31.984,1.51564e+06,2306.18,148,6,-0.001059873,2.499986,-0.00264967,0.0006848059,0.0006788695,0.002280472,0.001939176,2325.892,2305.841,0,99.13313,,
	08/06/2022 04:53:16.487,1.52024e+06,2292.76,149,6,-0.001059886,2.499993,-0.00264971,0.000680536,0.000674926,0.002266382,0.001927615,2311.395,2292.445,0,99.17565,,
	08/06/2022 06:09:37.174,1.52482e+06,2280.95,150,6,-0.00105991,2.499995,-0.00264977,0.0006770037,0.0006714625,0.002254671,0.001917594,2299.38,2280.647,0,99.18151,,
	08/06/2022 07:25:34.773,1529378.625,2269.62,151,6,-0.001059909,2.499991,-0.00264976,0.0006735453,0.0006681303,0.002243279,0.001908002,2287.613,2269.343,0,99.19604,,
	08/06/2022 08:41:08.271,1.53391e+06,2258.6,152,6,-0.001059896,2.499995,-0.00264973,0.0006697046,0.0006648822,0.002230582,0.001898274,2274.513,2258.321,0,99.27991,,
	08/06/2022 09:56:23.975,1.53843e+06,2250.06,153,6,-0.001059892,2.499986,-0.00264972,0.0006669813,0.0006623561,0.002221714,0.001891028,2265.278,2249.778,0,99.30656,,
	08/06/2022 11:11:26.577,1.54293e+06,2243.04,154,6,-0.00105991,2.499999,-0.00264977,0.0006651859,0.0006602874,0.002215757,0.001885157,2259.194,2242.727,0,99.2636,,
	08/06/2022 12:26:12.223,1547416.075,2235.19,155,6,-0.001059937,2.499999,-0.00264984,0.0006624874,0.0006579814,0.002206769,0.001878468,2250.105,2234.884,0,99.31984,,
	08/06/2022 13:40:53.980,1.5519e+06,2234.27,156,6,-0.001059928,2.499963,-0.00264978,0.0006616242,0.0006577212,0.002203735,0.001878032,2247.176,2233.965,0,99.41007,,
	08/06/2022 14:55:37.643,1.55638e+06,2233.96,157,6,-0.001059896,2.499999,-0.00264974,0.0006622503,0.0006576384,0.002205608,0.001878452,2249.369,2233.652,0,99.3036,,
	08/06/2022 16:10:25.437,1.56087e+06,2236.815,158,6,-0.001059909,2.499999,-0.00264977,0.000662623,0.0006585003,0.00220657,0.001881389,2250.638,2236.54,0,99.37782,,
	08/06/2022 17:25:15.971,1.56536e+06,2238.175,159,6,-0.001059989,2.499999,-0.00264997,0.0006630162,0.000658887,0.002207644,0.001882741,2251.985,2237.875,0,99.37722,,
	08/06/2022 18:39:56.636,1.56984e+06,2230.95,160,6,-0.001059986,2.499995,-0.00264996,0.0006622314,0.0006567748,0.002204917,0.001876829,2249.344,2230.67,0,99.17605,,
	08/06/2022 19:54:21.192,1.57431e+06,2224,161,6,-0.001059914,2.499999,-0.00264978,0.0006595443,0.0006547052,0.00219597,0.001870839,2240.178,2223.701,0,99.2663,,
	08/06/2022 21:08:28.610,1.57875e+06,2215.02,162,6,-0.001059905,2.499999,-0.00264976,0.0006571516,0.0006520455,0.002188067,0.001863026,2232.048,2214.691,0,99.22299,,
	08/06/2022 22:22:13.710,1.58318e+06,2204.23,163,6,-0.001059889,2.499986,-0.00264971,0.0006537593,0.0006488569,0.002176878,0.00185366,2220.473,2203.89,0,99.25012,,
	08/06/2022 23:35:34.986,1.58758e+06,2191.73,164,6,-0.001059917,2.499993,-0.00264979,0.0006504311,0.0006451849,0.002165876,0.001842815,2209.184,2191.417,0,99.19343,,
	08/07/2022 00:48:31.978,1.59196e+06,2180.255,165,6,-0.001059898,2.499988,-0.00264973,0.00064666,0.0006418165,0.002153495,0.001832935,2196.353,2179.96,0,99.25101,,
	08/07/2022 02:01:06.352,1.59631e+06,2168.97,166,6,-0.001059909,2.499995,-0.00264977,0.0006433335,0.0006384825,0.002142531,0.001823152,2185.043,2168.653,0,99.24595,,
	08/07/2022 03:13:20.726,1.60064e+06,2159.88,167,6,-0.001059903,2.499997,-0.00264975,0.0006401393,0.0006358068,0.002132022,0.00181514,2174.12,2159.54,0,99.3232,,
	08/07/2022 04:25:15.501,1.60496e+06,2148.388,168,6,-0.001059875,2.499995,-0.00264968,0.0006377471,0.0006324249,0.002124177,0.001805358,2166.019,2148.062,0,99.16547,,
	08/07/2022 05:36:50.373,1.60925e+06,2139.75,169,6,-0.001059856,2.49999,-0.00264963,0.0006344157,0.000629884,0.002113143,0.00179793,2154.716,2139.443,0,99.2857,,
	08/07/2022 06:48:09.388,1.61353e+06,2132.17,170,6,-0.001059926,2.499999,-0.00264981,0.0006319835,0.0006276397,0.002105082,0.001791495,2146.442,2131.855,0,99.31268,,
	08/07/2022 07:59:11.515,1.6178e+06,2122.987,171,6,-0.001059905,2.499999,-0.00264976,0.0006297218,0.0006249305,0.002097646,0.001783635,2138.783,2122.64,0,99.23914,,
	08/07/2022 09:09:50.434,1622034.286,2111.54,172,6,-0.001059884,2.499976,-0.00264968,0.0006262716,0.0006215714,0.002086281,0.00177366,2127.024,2111.223,0,99.2495,,
	08/07/2022 10:20:14.442,1.62626e+06,2105.85,173,6,-0.001059917,2.499991,-0.00264978,0.0006235562,0.0006199123,0.002077357,0.001768807,2117.788,2105.543,0,99.41563,,
	08/07/2022 11:30:25.158,1.63047e+06,2097.72,174,6,-0.001059919,2.499982,-0.00264978,0.0006220104,0.0006175264,0.002072178,0.001761964,2112.615,2097.414,0,99.27911,,
	08/07/2022 12:40:27.959,1.63467e+06,2095.58,175,6,-0.001059921,2.499991,-0.00264979,0.0006203106,0.0006168892,0.002066548,0.001760241,2106.848,2095.239,0,99.44844,,
	08/07/2022 13:50:32.688,1.63888e+06,2096.203,176,6,-0.001059948,2.499984,-0.00264985,0.0006206765,0.0006170814,0.002067592,0.001761146,2108.109,2095.875,0,99.42078,,
	08/07/2022 15:00:41.610,1.64309e+06,2097.95,177,6,-0.001059947,2.499999,-0.00264987,0.0006213756,0.0006175783,0.002069726,0.001762893,2110.541,2097.603,0,99.3889,,
	08/07/2022 16:10:48.361,1.64729e+06,2095.89,178,6,-0.001059919,2.499995,-0.00264979,0.0006213374,0.0006169619,0.002069496,0.001761439,2110.423,2095.494,0,99.2958,,
	08/07/2022 17:20:46.246,1.65149e+06,2091.3,179,6,-0.001059949,2.499997,-0.00264987,0.0006200857,0.000615622,0.002065183,0.00175771,2106.167,2090.95,0,99.28014,,
	08/07/2022 18:30:32.047,1.65568e+06,2085.88,180,6,-0.001059886,2.499999,-0.00264971,0.0006181324,0.0006140198,0.002058662,0.001753073,2099.483,2085.504,0,99.33467,,
	08/07/2022 19:40:00.907,1.65984e+06,2076.74,181,6,-0.001059898,2.499997,-0.00264974,0.0006158564,0.0006113257,0.002051121,0.001745141,2091.7,2076.363,0,99.26434,,
	08/07/2022 20:49:14.657,1.664e+06,2068.37,182,6,-0.001059917,2.499991,-0.00264978,0.0006138626,0.0006088454,0.002044554,0.001738154,2084.947,2067.99,0,99.18269,,
	08/07/2022 21:58:13.430,1668137.282,2062.04,183,6,-0.001059889,2.499999,-0.00264972,0.0006113066,0.000606979,0.002036006,0.001732684,2076.268,2061.664,0,99.29207,,
	08/07/2022 23:06:56.236,1.67226e+06,2054.15,184,6,-0.001059934,2.499997,-0.00264983,0.0006089463,0.0006046548,0.002028198,0.001725845,2068.24,2053.761,0,99.29526,,
	08/08/2022 00:15:24.675,1676368.527,2048.27,185,6,-0.001059853,2.499993,-0.00264963,0.0006064488,0.0006029225,0.002019925,0.00172071,2059.748,2047.88,0,99.41853,,
	08/08/2022 01:23:37.340,1.68046e+06,2038.39,186,6,-0.001059907,2.499995,-0.00264976,0.0006047271,0.0006000216,0.002014278,0.001712228,2053.88,2038.006,0,99.22189,,
	08/08/2022 02:31:29.667,1.68453e+06,2028.29,187,6,-0.001059884,2.499999,-0.00264971,0.0006017126,0.0005970501,0.002004371,0.001703584,2043.633,2027.935,0,99.22514,,
	08/08/2022 03:39:03.519,1.68859e+06,2020.27,188,6,-0.001059867,2.499993,-0.00264966,0.000598643,0.0005946738,0.001994261,0.001696562,2033.175,2019.893,0,99.33696,,
	08/08/2022 04:46:21.337,1.69263e+06,2011.5,189,6,-0.00105985,2.499991,-0.00264962,0.0005965054,0.0005921058,0.001987208,0.001688971,2025.917,2011.135,0,99.26244,,
	08/08/2022 05:53:23.548,1.69665e+06,2004.6,190,6,-0.001059878,2.499997,-0.00264969,0.0005939426,0.0005900746,0.001978751,0.001683049,2017.192,2004.266,0,99.34875,,
	08/08/2022 07:00:11.911,1.70066e+06,1998.14,191,6,-0.001059854,2.499997,-0.00264963,0.000591799,0.0005881619,0.001971659,0.001677457,2009.853,1997.76,0,99.38543,,
	08/08/2022 08:06:44.251,1.70465e+06,1988.63,192,6,-0.001059843,2.499991,-0.0026496,0.0005898574,0.0005854231,0.001965258,0.001669478,2003.261,1988.265,0,99.24824,,
	08/08/2022 09:13:09.374,1.70863e+06,1985.63,193,6,-0.001059854,2.499991,-0.00264963,0.0005886288,0.0005845035,0.001961269,0.00166709,1999.069,1985.304,0,99.29918,,
	08/08/2022 10:19:17.656,1.7126e+06,1978.11,194,6,-0.001059859,2.499995,-0.00264964,0.0005858728,0.0005822741,0.001952064,0.001660395,1989.77,1977.774,0,99.38576,,
	08/08/2022 11:25:18.988,1.71656e+06,1974.47,195,6,-0.001059887,2.499997,-0.00264971,0.000584881,0.0005811993,0.001948749,0.001657543,1986.434,1974.106,0,99.37052,,
	08/08/2022 12:31:24.036,1.72053e+06,1977.128,196,6,-0.001059863,2.499984,-0.00264964,0.0005851865,0.0005820041,0.0019496,0.00166026,1987.507,1976.847,0,99.45618,,
	08/08/2022 13:37:33.914,1.7245e+06,1978.94,197,6,-0.001059861,2.499988,-0.00264964,0.0005860639,0.0005825247,0.001952308,0.001662002,1990.518,1978.613,0,99.39612,,
	08/08/2022 14:43:44.980,1.72847e+06,1979.571,198,6,-0.00105988,2.499995,-0.00264969,0.0005862259,0.0005827051,0.001952713,0.001662768,1991.052,1979.246,0,99.39941,,
	08/08/2022 15:49:41.928,1.73243e+06,1970.94,199,6,-0.001059887,2.499984,-0.0026497,0.0005846409,0.000580182,0.001947459,0.001655445,1985.617,1970.645,0,99.23733,,
	08/08/2022 16:55:28.937,1.73637e+06,1967.37,200,6,-0.001059896,2.499986,-0.00264973,0.0005827526,0.0005791146,0.001941221,0.001652381,1979.255,1967.016,0,99.37572,,